date,time,accel_x,accel_y,accel_z
2025-03-05,00:00:00,1.0912521253812908,1.1370922225812834,0.8692436797138222
2025-03-05,00:00:01,1.1458323628163938,1.1802757610534436,1.0652140584481122
2025-03-05,00:00:02,1.1014833740122028,1.2363217492110494,0.9209226680291683
2025-03-05,00:00:03,0.9710673566465046,0.9499753754393142,1.1692985587762221
2025-03-05,00:00:04,0.9511782154862862,1.1895200830401875,1.0777343131951382
2025-03-05,00:00:05,0.9149717991775296,1.0834267621860334,1.2266789982918977
2025-03-05,00:00:06,1.130396866004416,0.9429266512986253,0.99903410607174
2025-03-05,00:00:07,1.0569415270280205,1.2614346819995703,0.9506391665670848
2025-03-05,00:00:08,0.979962114064256,1.087093544114997,1.1860069954609689
2025-03-05,00:00:09,1.1065313013428824,1.0982979585554062,1.1007957017302783
2025-03-05,00:00:10,0.9853720324413413,1.027690263069924,1.1118171754990955
2025-03-05,00:00:11,0.9064406580654426,1.0381483175203705,1.208902125084258
2025-03-05,00:00:12,0.9456167216917744,0.9613161541064424,1.1016408197850107
2025-03-05,00:00:13,1.1129022813577336,1.0194548225768147,0.9294205484055855
2025-03-05,00:00:14,1.1406448609256876,1.0018148645332043,1.2301227993257855
2025-03-05,00:00:15,0.9880687759875197,1.015244058958751,1.1663148217965609
2025-03-05,00:00:16,0.8445393221540738,1.0927489433301758,1.0900941284323924
2025-03-05,00:00:17,1.2311793992830569,1.10134039225589,0.8153350289268766
2025-03-05,00:00:18,1.0896470483855842,0.9724534912322539,1.1304024279580842
2025-03-05,00:00:19,0.9352627554603992,1.0168470678944832,1.1027923233404053
2025-03-05,00:00:20,0.9632144674653762,1.0505029871632816,1.1277552237681823
2025-03-05,00:00:21,1.0241223619581283,0.9064204113942519,1.2112962734003234
2025-03-05,00:00:22,1.212328059695546,1.113681649145797,1.1371460322325406
2025-03-05,00:00:23,0.8957508577344512,1.1462243089148552,1.121266790548641
2025-03-05,00:00:24,0.9537056479470368,0.9470580417227586,1.1927582464128956
2025-03-05,00:00:25,0.9884667883622217,0.8540607413346015,0.9168035878205251
2025-03-05,00:00:26,1.076270230151438,0.9274820824296193,1.235494410077349
2025-03-05,00:00:27,0.9751141728112429,1.1214655095617663,1.058001360271586
2025-03-05,00:00:28,1.013231830931124,1.1039177874295467,0.9810416943825954
2025-03-05,00:00:29,0.9915567153613143,1.03224376232893,1.0474729981047046
2025-03-05,00:00:30,0.7932213369827033,0.932189306599176,1.1784716531183135
2025-03-05,00:00:31,0.9512579261438753,0.9669438253960918,1.0881277605384958
2025-03-05,00:00:32,1.1117612382285882,1.1662087325956827,1.1173184520823656
2025-03-05,00:00:33,0.9443949691018833,1.049293316754493,0.995538583788998
2025-03-05,00:00:34,1.1734506064952777,1.0558979259337458,1.0443966346022144
2025-03-05,00:00:35,0.8388283655613762,1.1999936525748989,1.1529224604155657
2025-03-05,00:00:36,0.9217041061578607,1.1398958259343956,1.05636027245973
2025-03-05,00:00:37,0.8880022090522695,0.9655708895005628,0.9016081640511096
2025-03-05,00:00:38,1.2053875101240807,1.1706437511396903,1.0256344463412734
2025-03-05,00:00:39,1.1114416471871529,1.1804255480115229,0.8288208493297592
2025-03-05,00:00:40,1.0245618333955722,0.9865967418141003,1.0508029725673165
2025-03-05,00:00:41,1.0659536623461152,1.1668164987691225,0.8300360518812313
2025-03-05,00:00:42,1.1698740650737796,0.8886352120957777,1.1559010916457837
2025-03-05,00:00:43,1.1791527305645204,1.1197029985984341,0.8901343020333596
2025-03-05,00:00:44,0.8968464387027495,1.2414855235888655,0.9763462142205043
2025-03-05,00:00:45,1.1345486182122335,0.80086040459169,1.0111076523096643
2025-03-05,00:00:46,0.9389441612054993,1.0701683144553094,0.9306234820616615
2025-03-05,00:00:47,0.9966677381700726,1.1725988452805314,1.0073918423134678
2025-03-05,00:00:48,1.0182024999250965,0.8317500098331232,0.9224010812709692
2025-03-05,00:00:49,1.1364436756443312,0.8773268437422874,1.1645915891327587
2025-03-05,00:00:50,0.863676828564748,1.105031408518054,1.081380735406364
2025-03-05,00:00:51,0.9359781135812043,0.9120922723463325,1.2814760613767282
2025-03-05,00:00:52,1.245062428278574,0.9233973295326248,0.8773147969796072
2025-03-05,00:00:53,1.041777453224342,0.9234940782917296,1.1472383553762142
2025-03-05,00:00:54,1.0918686429862652,1.0888982961439637,0.8653520504996731
2025-03-05,00:00:55,1.2387596555184035,0.793170359656911,0.8827567375877917
2025-03-05,00:00:56,0.996765755980057,0.8875672426724674,1.0179116894437403
2025-03-05,00:00:57,1.1405749521582218,0.8631013882719617,1.2054897791398156
2025-03-05,00:00:58,1.074180540815307,1.0885243603636856,1.1342368120135207
2025-03-05,00:00:59,0.9893541356889435,0.9339703918039675,1.0162224384824199
2025-03-05,00:01:00,0.8849099588202405,1.0824783830641778,0.9553830729918661
2025-03-05,00:01:01,1.0207864330951162,0.8503377424292742,1.124258031925306
2025-03-05,00:01:02,0.8283849350129645,1.1280884923840089,1.0797052650398544
2025-03-05,00:01:03,1.04202905217673,1.1070508003735064,1.0450493643746361
2025-03-05,00:01:04,0.8742062680348832,1.0171661799933707,1.1348618292800343
2025-03-05,00:01:05,1.1188130889413377,1.0099785844692004,1.2511439308457493
2025-03-05,00:01:06,1.1332562587699544,1.0932308140761484,1.0621235181689472
2025-03-05,00:01:07,1.1120969737321056,0.9954789993040697,1.1293084171634469
2025-03-05,00:01:08,1.2317629757108124,1.1481963300702602,1.0902005351182142
2025-03-05,00:01:09,1.083415538008001,1.2730949315970923,1.0264953875643952
2025-03-05,00:01:10,1.0731384418149739,0.8786983624563545,1.2294944732449447
2025-03-05,00:01:11,0.8173750355875473,1.0842116642301658,0.9263895843626156
2025-03-05,00:01:12,1.0531465820104708,0.9696950984570727,1.264744378973101
2025-03-05,00:01:13,1.0691586043540569,0.8520872257283997,0.9327836344523452
2025-03-05,00:01:14,0.9441337978005522,0.9703526220878844,0.8317340750783402
2025-03-05,00:01:15,1.119219255903218,1.1220048583551954,1.014474125307642
2025-03-05,00:01:16,0.9798897294077321,0.9872033513712785,1.0276798961252138
2025-03-05,00:01:17,1.0940651416515286,1.1644029337960358,1.0225379686688736
2025-03-05,00:01:18,0.8181906268246253,0.8523728479104372,1.0287735836451886
2025-03-05,00:01:19,1.039859976119247,1.1286984572286487,0.9399744525940459
2025-03-05,00:01:20,0.8662940036177843,1.0594872398684636,1.1916913553970725
2025-03-05,00:01:21,1.089444682872755,1.022896638595699,0.7599023314883533
2025-03-05,00:01:22,1.088748918690535,1.083345512890139,1.300436153642277
2025-03-05,00:01:23,0.9761521049126747,1.1540917996335414,1.1609941376196642
2025-03-05,00:01:24,1.18477570602256,0.8188048617050141,1.1563535040960093
2025-03-05,00:01:25,0.9653898913426686,1.0461475094162813,1.162881015126984
2025-03-05,00:01:26,0.9765436785480042,0.9320089486500248,1.1051419411339487
2025-03-05,00:01:27,1.116160373400683,0.9301746151464602,1.0703217421486326
2025-03-05,00:01:28,1.04683677485092,1.2088989380436432,1.2006513550337856
2025-03-05,00:01:29,0.9960276581087472,0.8946200469956204,1.163726847398033
2025-03-05,00:01:30,1.1265631529131663,0.9164440182017397,0.9549681196446882
2025-03-05,00:01:31,1.2222142878054034,1.0735789228264856,1.045670537094897
2025-03-05,00:01:32,0.8507629147928422,0.862585133671045,0.9218659483567937
2025-03-05,00:01:33,0.8814401741659399,0.8397085135897788,0.9187207088829095
2025-03-05,00:01:34,1.0191811038959724,1.0078400155679539,1.0572850487533452
2025-03-05,00:01:35,0.9337892220838118,0.904090697302975,1.1332211090665756
2025-03-05,00:01:36,0.9572657985659676,1.0430783220042048,1.2185596159593661
2025-03-05,00:01:37,1.0064910504846512,1.0410681176145786,0.9872820974685543
2025-03-05,00:01:38,1.1920975510906873,1.0860768085823094,1.177221841422806
2025-03-05,00:01:39,1.1952780255718878,0.8524174707374169,1.0000043635003908
2025-03-05,00:01:40,1.03592010760781,0.875939353946057,1.1817959094050332
2025-03-05,00:01:41,0.9432186144311007,0.8666347359804821,1.0110537609591315
2025-03-05,00:01:42,0.9367364464665721,0.9295906545916198,1.026705861355089
2025-03-05,00:01:43,0.9008141451514672,0.8225497355538641,0.9961955051720359
2025-03-05,00:01:44,1.0788028917326145,0.8553107065704436,1.119736596049383
2025-03-05,00:01:45,1.002015110666867,0.919423042557157,1.1835959197853647
2025-03-05,00:01:46,1.036110049064063,1.2234534628260239,0.9379932632631032
2025-03-05,00:01:47,1.1740562548323588,0.9312694564897955,0.9120525180095038
2025-03-05,00:01:48,1.093233509477799,1.105773798889627,0.9015919628641118
2025-03-05,00:01:49,1.2693804838773561,0.950833564874465,0.8701212098780826
2025-03-05,00:01:50,0.9743162072152431,1.1052175921419254,1.1160857135083746
2025-03-05,00:01:51,1.1593312231731872,0.9565257558228015,1.1531906252037134
2025-03-05,00:01:52,1.1467091056115146,0.9522044831156415,1.1295124672833363
2025-03-05,00:01:53,0.9668483745342107,1.0921100107757487,0.8879437006280245
2025-03-05,00:01:54,0.8014361252026867,1.276552662769368,1.0566558123762908
2025-03-05,00:01:55,0.9260102939586116,1.090651773359187,1.181089855792518
2025-03-05,00:01:56,1.215130597736244,0.78442681455355,1.15039297134812
2025-03-05,00:01:57,1.0748133912519493,1.1785227819740136,1.0327780780405056
2025-03-05,00:01:58,0.8778690710397686,0.9757383352320136,0.9558128414747776
2025-03-05,00:01:59,1.1841765957693018,1.168605507478475,1.126569870085695
2025-03-05,00:02:00,1.0315401144630012,1.0075604883746507,0.9826499071299696
2025-03-05,00:02:01,1.0466787152977186,0.8728258791695129,1.2227641723526985
2025-03-05,00:02:02,1.0754572653128025,0.8980916137820681,0.8876530405805934
2025-03-05,00:02:03,1.0031449116810056,1.1122228255993531,1.016423510621749
2025-03-05,00:02:04,1.132644686028461,0.7728629844753908,0.9813272767421518
2025-03-05,00:02:05,0.8768259767417439,1.0143064199815657,1.0962189320740034
2025-03-05,00:02:06,1.0641689318644956,1.0540369637102853,1.1740335402701176
2025-03-05,00:02:07,1.1677931327188331,0.9966147985425602,1.0412362735878666
2025-03-05,00:02:08,0.991276178916254,1.0404919812263975,0.8406441206126043
2025-03-05,00:02:09,1.030040811348136,1.1996199433966688,0.9614934878595539
2025-03-05,00:02:10,1.061177108473471,1.133841622980105,1.0864227724030355
2025-03-05,00:02:11,0.9067916768607636,0.8793972485900156,1.2535172937138144
2025-03-05,00:02:12,0.971989841617731,1.122670876134382,1.1303332026073238
2025-03-05,00:02:13,1.042635251726502,1.1021753833895536,1.059492824397036
2025-03-05,00:02:14,1.0722683465213265,1.1298772568521818,1.0551169626059207
2025-03-05,00:02:15,0.8876911581868574,0.9637508920060532,1.1109274484439895
2025-03-05,00:02:16,1.1303923052479574,0.8588105843308642,0.9977445679190046
2025-03-05,00:02:17,0.96417896870342,1.0162574015399415,0.9269141828235781
2025-03-05,00:02:18,0.8924256383211884,1.0853028898170374,1.0839382809971663
2025-03-05,00:02:19,0.9520221272425695,0.8954320585688889,0.8899712685298752
2025-03-05,00:02:20,1.104916138614804,1.00799098478734,1.0564680243466642
2025-03-05,00:02:21,0.8984996114970808,1.1520668106974752,1.043634802438097
2025-03-05,00:02:22,1.0206384503348076,1.1802243228743932,0.9926640960908126
2025-03-05,00:02:23,1.0201451260444216,1.1925010651810235,1.1598135571712185
2025-03-05,00:02:24,1.0204427490096069,0.979643857969636,0.9651092883737319
2025-03-05,00:02:25,1.135022306573109,1.1780111019422113,1.0671078825351679
2025-03-05,00:02:26,1.042834399877838,1.1323450574843583,0.9356778675372882
2025-03-05,00:02:27,1.1544229870252656,0.9134868298894506,1.0221928625189463
2025-03-05,00:02:28,1.0882225528336502,1.0580501469371142,1.2286715831803179
2025-03-05,00:02:29,1.0622186210986384,1.1177175736377827,1.2425650437528926
2025-03-05,00:02:30,0.9517482481164452,0.9272977214623538,1.1413496187395606
2025-03-05,00:02:31,0.8731174902622426,1.096043442523224,0.8996605799101585
2025-03-05,00:02:32,1.0222842332293598,1.138890215391251,0.8408183908399902
2025-03-05,00:02:33,1.1098693594583493,1.045240775484095,1.1956387372012556
2025-03-05,00:02:34,0.8283654972976836,1.0968561958596494,0.884442461843444
2025-03-05,00:02:35,0.9895749746165861,1.1237053407618616,0.9773350835619712
2025-03-05,00:02:36,1.0383390842130462,1.1978748515076847,0.9462010376601531
2025-03-05,00:02:37,1.1960970083129778,0.9771607271205676,1.1967571345945764
2025-03-05,00:02:38,1.0983548915616428,0.8700508906264882,1.1173715601370926
2025-03-05,00:02:39,1.1305184876991061,0.9573425812966168,1.0274999132834295
2025-03-05,00:02:40,0.8919121111446088,0.7877689698850648,0.8985730177685782
2025-03-05,00:02:41,1.1484729216735698,0.9965571136662282,1.0060497087974554
2025-03-05,00:02:42,1.1080632430279274,1.2400775802002906,0.7992729048311759
2025-03-05,00:02:43,1.0109002923402142,0.9526101318061563,1.1622813144703563
2025-03-05,00:02:44,0.8916699155612245,1.0230158830174165,1.1551468824047195
2025-03-05,00:02:45,0.9882189390201815,1.1196426080086295,0.8532699685807904
2025-03-05,00:02:46,1.0214118645438488,1.195269114871443,0.8968798509273322
2025-03-05,00:02:47,0.8542944225089305,0.959595208326381,1.0104051761693602
2025-03-05,00:02:48,1.0202363048417178,1.1662576219395981,1.1077263909258912
2025-03-05,00:02:49,1.3219343613951873,0.9865973953088975,1.0941359472795638
2025-03-05,00:02:50,1.171770312686943,0.8576429998105393,1.1874217790357477
2025-03-05,00:02:51,1.1031534089497688,1.1486340761225546,1.254815078592987
2025-03-05,00:02:52,1.0735698034114296,1.1496954407161146,0.9559813487480646
2025-03-05,00:02:53,1.1447055931402081,1.0527823016604176,1.011571496555388
2025-03-05,00:02:54,1.134685724252246,0.9303078153138724,1.023190441862994
2025-03-05,00:02:55,0.9523684217928574,0.937103869773192,1.0860834132755506
2025-03-05,00:02:56,1.0376294764596925,1.098413609296766,0.9602131211524839
2025-03-05,00:02:57,1.145274877212398,0.9606342056203104,1.0641784987856113
2025-03-05,00:02:58,1.0795200147182997,1.2277436040986027,1.0454751929484014
2025-03-05,00:02:59,1.0466545491681902,1.1328383896208454,1.0407731009961994
2025-03-05,00:03:00,0.9070418501376863,1.030317900399176,1.0343276685682727
2025-03-05,00:03:01,1.0803631765756734,0.8825946751794216,0.8672663427062729
2025-03-05,00:03:02,1.121827070330324,0.8542348280434001,0.9657406674839167
2025-03-05,00:03:03,1.0752233563053661,0.8854977234561558,0.928901601034563
2025-03-05,00:03:04,0.9608076395042964,1.1586939198102755,0.991413962197513
2025-03-05,00:03:05,1.000545783237689,0.8786920654840615,0.9579873800101137
2025-03-05,00:03:06,1.0552924249716706,1.1759707732491895,0.8989666482235927
2025-03-05,00:03:07,0.9877772011925768,0.9856236660540749,1.0181088190845544
2025-03-05,00:03:08,1.1163928062913913,1.096774783225634,0.9543131450326976
2025-03-05,00:03:09,1.097987360075812,0.8830014460983859,1.3043817040852412
2025-03-05,00:03:10,1.0872980177870766,1.12329356674474,0.8600853898187707
2025-03-05,00:03:11,0.9238381768334485,0.9437955447239629,1.0781168066109026
2025-03-05,00:03:12,0.9715148645796412,1.1607977730464443,0.9391601136598068
2025-03-05,00:03:13,1.2092983494124598,1.0794425909644565,1.1226518773816396
2025-03-05,00:03:14,1.0412097602044401,1.0620482515321887,1.1632857944495143
2025-03-05,00:03:15,1.1855102129680513,0.9343527718156249,1.0811714634183884
2025-03-05,00:03:16,1.0289331316998587,0.8824003792775275,0.9834524727213906
2025-03-05,00:03:17,1.0119701860505823,0.9664331630766841,1.1845589199586177
2025-03-05,00:03:18,1.1870673576452102,1.03105642069785,1.1670102887433902
2025-03-05,00:03:19,1.164540020139257,0.9796427966740505,0.9780318097826208
2025-03-05,00:03:20,0.9907244781485928,1.0489509424083572,1.1777643553667967
2025-03-05,00:03:21,0.9827002633463405,0.9658668976052064,1.1717007532350283
2025-03-05,00:03:22,1.0776502232838068,1.1879054408718532,0.8747324342165526
2025-03-05,00:03:23,0.9248324014342516,1.238077315350672,0.9000066476646258
2025-03-05,00:03:24,0.9973936282280293,1.1092207916487427,1.0961395110611698
2025-03-05,00:03:25,1.0910355873382975,0.9508176449955827,1.1081269044071929
2025-03-05,00:03:26,1.1368106927929396,0.9011439569568076,0.9667232178070829
2025-03-05,00:03:27,0.8959063679167918,1.0021937390078381,0.8881413399077042
2025-03-05,00:03:28,0.9074399293544045,1.0526866440537745,1.2033441554079476
2025-03-05,00:03:29,1.0868536544467655,0.8182898164638356,0.8850872068991865
2025-03-05,00:03:30,1.0946360327174915,1.1146655998700272,1.0429658688812549
2025-03-05,00:03:31,0.9536242600386156,1.0218882463378711,0.9263047945621173
2025-03-05,00:03:32,0.9497800729437931,0.8544868039262161,0.9419026962150087
2025-03-05,00:03:33,1.1348272447091696,1.0222782678444742,0.9097119296053083
2025-03-05,00:03:34,0.9553685391064562,0.9218660687294983,1.1210582654743575
2025-03-05,00:03:35,1.176320516907134,1.1589856424733527,0.9979301708457389
2025-03-05,00:03:36,0.9453595025282268,1.242395461922858,1.2493058733075197
2025-03-05,00:03:37,1.1366591956606273,1.1369102951001844,0.9054980896674223
2025-03-05,00:03:38,1.0009745546475484,1.0795166152129263,1.01779357257579
2025-03-05,00:03:39,1.1306683922303093,1.0130209730284332,1.0069080847771295
2025-03-05,00:03:40,1.0258760029163656,1.0659227321889326,1.1095475800640628
2025-03-05,00:03:41,1.1766926600581373,1.0411446618697024,1.0078097579465983
2025-03-05,00:03:42,0.9973479556214683,1.0314726604799866,0.9164066423715616
2025-03-05,00:03:43,1.0801707210483629,1.1015284393984357,0.971548218567506
2025-03-05,00:03:44,0.8689864612688017,0.9997231385433438,1.0294280697313727
2025-03-05,00:03:45,0.9122492817476101,0.8599960476741739,0.9842819922163836
2025-03-05,00:03:46,0.8943852063029648,0.9778257536210507,1.0040390125201124
2025-03-05,00:03:47,1.156702126370521,1.0893641475637004,1.087138889533174
2025-03-05,00:03:48,0.9183009185729127,1.0833496186014357,1.0872036316654394
2025-03-05,00:03:49,0.9346700663949362,0.7839854128261823,0.8483369370622342
2025-03-05,00:03:50,0.9382077326411595,1.17778301022399,0.9134515922756199
2025-03-05,00:03:51,1.0108232286043166,0.8769420910549011,0.9841618245144523
2025-03-05,00:03:52,1.141688784641425,1.0577872584791514,1.2275639634062179
2025-03-05,00:03:53,0.9896203365062675,0.9474834580171835,1.0133313989333474
2025-03-05,00:03:54,0.9334432159784336,0.9560553145256102,0.9622762420039548
2025-03-05,00:03:55,0.9133755586292036,0.9009995512600341,0.9043185068830704
2025-03-05,00:03:56,1.0966575486037116,0.8554466217726493,0.99141909687588
2025-03-05,00:03:57,1.215564912656177,0.9947883007927736,1.1854847379652842
2025-03-05,00:03:58,0.925351959892649,1.0978600305493618,1.1863348724604779
2025-03-05,00:03:59,1.0558470626147713,1.1384090748365752,1.1487053248023498
2025-03-05,00:04:00,1.0469893009516777,1.2521535184636845,1.0978560494191816
2025-03-05,00:04:01,1.164028787532712,1.0681833576014272,1.0392363405351648
2025-03-05,00:04:02,0.9735829834338394,1.1380996820916829,0.7985864701639265
2025-03-05,00:04:03,1.2004952910167426,1.0460761252487503,0.9334619758921877
2025-03-05,00:04:04,1.1314639588720956,1.1678531376846055,1.0847664287079102
2025-03-05,00:04:05,1.0149801823185969,1.1757520438197642,1.1186885139397817
2025-03-05,00:04:06,1.1311477770824414,1.0434183790483078,1.2350195411606641
2025-03-05,00:04:07,0.9727006226493824,1.1168315556359107,1.1726018252454902
2025-03-05,00:04:08,1.0454671612261628,1.036911363913064,0.8773358192268624
2025-03-05,00:04:09,0.9920669896141435,0.8803734501316867,1.1638067278017532
2025-03-05,00:04:10,0.89649666235561,0.9420425141269219,1.1872870095378567
2025-03-05,00:04:11,1.1732575884810772,0.8213939839667618,0.9925058589944042
2025-03-05,00:04:12,1.0753271928097383,1.1076478006934813,0.972013305873475
2025-03-05,00:04:13,1.0231673380879298,1.1298789392251398,1.192685152086737
2025-03-05,00:04:14,0.9492002775366277,0.9136186402622457,0.9364421814730974
2025-03-05,00:04:15,1.1930839491739085,0.9772217103065064,0.9425706117699707
2025-03-05,00:04:16,1.0738020003988669,1.2548165075210809,1.1116049084524802
2025-03-05,00:04:17,1.0147373663702064,1.0461290218280732,1.0491752384656277
2025-03-05,00:04:18,1.0831887611726996,0.9664009885497669,1.1684199260572181
2025-03-05,00:04:19,1.2516698670997193,1.162163585507832,1.1984603472771496
2025-03-05,00:04:20,0.9555884855705934,1.1266646274223087,0.9866711632769362
2025-03-05,00:04:21,1.178266728679773,1.2042642953879703,0.8146743805532438
2025-03-05,00:04:22,1.0414887341958912,0.9037205720694558,1.1337132231449456
2025-03-05,00:04:23,1.1578643216367526,0.7954768144467751,1.1847255243696289
2025-03-05,00:04:24,0.9088382119779137,0.9347720284005142,0.9609716971167759
2025-03-05,00:04:25,1.0326400101504685,0.8492707977547065,1.0136712032270772
2025-03-05,00:04:26,0.893721939941984,1.1615379599962752,0.98362114343845
2025-03-05,00:04:27,1.0208428870378343,1.0113331720146084,1.0403934900484806
2025-03-05,00:04:28,1.0614718087167339,0.9704027937735397,1.1209459590588102
2025-03-05,00:04:29,0.9691631413347263,1.1054222963404776,0.8936088853097643
2025-03-05,00:04:30,1.1474706448039635,1.1995065242475755,0.9959247541332568
2025-03-05,00:04:31,1.1602939551466562,1.0587653785311264,1.0532612696732435
2025-03-05,00:04:32,1.085627494513159,1.0834421656941802,0.9461690194514898
2025-03-05,00:04:33,0.980054786327944,1.0364320855328433,0.8686599752817477
2025-03-05,00:04:34,1.1154941910038065,0.8773972237706428,0.930079591697185
2025-03-05,00:04:35,1.275157484198847,0.9395656661817561,0.8743178671206241
2025-03-05,00:04:36,1.1926108676099645,0.9187966821038472,0.9259726598640141
2025-03-05,00:04:37,0.9918250917361182,1.0333511925464771,1.0551752021397578
2025-03-05,00:04:38,0.9482950677193261,1.1364196174369157,1.2461967845797006
2025-03-05,00:04:39,1.065753056727061,1.195715682541407,1.2425942797392275
2025-03-05,00:04:40,1.0894034168066136,0.8679210502501484,0.9279075712588758
2025-03-05,00:04:41,1.141821915609958,1.1307717632820038,0.8390328571432301
2025-03-05,00:04:42,0.956024248697885,1.215536678732149,1.1989164708683258
2025-03-05,00:04:43,0.9457774124303873,1.0718958936075893,1.1692721459729636
2025-03-05,00:04:44,1.053366779041153,1.1921592219083055,0.9167411299733907
2025-03-05,00:04:45,1.146810298517944,1.142073702222144,0.8957594573370345
2025-03-05,00:04:46,1.0672363803386693,0.9649668346442452,0.9215093749876095
2025-03-05,00:04:47,1.1299469777862101,1.0373975226867942,0.8791831101309832
2025-03-05,00:04:48,1.0938801006324177,1.1418714458510515,0.9340833817705106
2025-03-05,00:04:49,0.9105359054352778,1.110037278032301,0.9172232211662594
2025-03-05,00:04:50,1.0523162852775487,0.8298686736372011,0.8648843736064459
2025-03-05,00:04:51,1.1121488336302174,1.2615621654851643,1.0176619511001421
2025-03-05,00:04:52,1.010301648933061,0.8628571083197181,1.1129422880497937
2025-03-05,00:04:53,0.9271238642730404,0.8912929442124067,0.8768479404720025
2025-03-05,00:04:54,0.9638241175763282,1.2127601219417519,1.0060768602646766
2025-03-05,00:04:55,1.1020453268911625,1.1475855981047516,0.8923762300580764
2025-03-05,00:04:56,1.1051261333155713,1.2111739076652273,1.0643256895287834
2025-03-05,00:04:57,1.0423415758814343,1.138382190159697,1.239769195287115
2025-03-05,00:04:58,1.149137576335028,1.1432763549974323,0.9494113324139662
2025-03-05,00:04:59,0.9284309544067658,0.9836815144580427,1.1516709035208483
2025-03-05,00:05:00,1.07084285168335,0.9109572306180196,0.9479230076794518
2025-03-05,00:05:01,1.0968058692029479,1.2423457126781654,0.9844025438376705
2025-03-05,00:05:02,0.9962340278869265,0.8743408617824001,1.1901556992646525
2025-03-05,00:05:03,1.1376559739838257,1.1788278582285667,1.0444538096822165
2025-03-05,00:05:04,0.9998496334196095,1.117549356466448,1.0528745474518613
2025-03-05,00:05:05,0.8665380856227358,0.9355585818183821,1.0826799628840902
2025-03-05,00:05:06,1.0213984979953785,1.0375821199039224,1.0208653137365542
2025-03-05,00:05:07,0.9753073390656268,1.00739279822885,1.14396881985189
2025-03-05,00:05:08,1.0223966516498453,0.9044011075274947,1.09446787885506
2025-03-05,00:05:09,1.0680008491265385,1.124470518525273,0.936769488640728
2025-03-05,00:05:10,0.899776494968568,1.1741171691895804,1.0794493186552905
2025-03-05,00:05:11,1.1482236191805575,0.8735926553852764,1.2004118218337958
2025-03-05,00:05:12,1.118942438445965,1.1580677397858241,1.066036356692826
2025-03-05,00:05:13,1.1797514499147004,1.0854406010919362,1.0239271191105157
2025-03-05,00:05:14,0.9071296761632992,0.9982232264925696,1.1737253673608077
2025-03-05,00:05:15,1.0462379767969459,1.0562469984861118,0.841638961502876
2025-03-05,00:05:16,0.9268109446254331,0.8598155957131252,1.0299930420596497
2025-03-05,00:05:17,0.9255524270630417,1.1977213248672895,1.197271472215595
2025-03-05,00:05:18,0.9931332449562085,0.9743190074346382,1.0628029161969732
2025-03-05,00:05:19,1.0670134635835256,0.8845180911637602,1.0634443833131524
2025-03-05,00:05:20,0.9756496476583127,0.9535832715804662,0.8718487938813748
2025-03-05,00:05:21,0.8461425122078114,0.9195271757148494,0.9562265052442039
2025-03-05,00:05:22,1.1379983008169512,1.0905498511559297,1.2011524241680587
2025-03-05,00:05:23,0.9929112920214777,0.857118141381585,0.9169608130397637
2025-03-05,00:05:24,1.0216074933804824,0.8609319144272947,0.8717757776050951
2025-03-05,00:05:25,1.0480271454696959,0.9720975053386367,1.027866018651613
2025-03-05,00:05:26,0.931892274973899,1.1129298280036932,1.1563195188523319
2025-03-05,00:05:27,1.120862494291491,0.8087392139318827,1.091623017789569
2025-03-05,00:05:28,1.0848770471866906,0.8101501169492078,0.9265516281030505
2025-03-05,00:05:29,1.1847403644010746,1.185205660621148,1.1602252738842045
2025-03-05,00:05:30,1.0823345980058394,0.8790969846385805,1.0424897154522093
2025-03-05,00:05:31,1.184189441223135,1.0273650740208702,1.0113897438462087
2025-03-05,00:05:32,0.9621151562657771,1.1635910566926253,0.8988364557395416
2025-03-05,00:05:33,1.0076206188566372,0.9004557880861548,1.163071590440192
2025-03-05,00:05:34,0.8356718733008974,1.025066323299027,1.1975497470910619
2025-03-05,00:05:35,1.0869456998072926,1.0300525840442207,1.1786206231429812
2025-03-05,00:05:36,0.9082799703733341,0.9892979615582121,1.1215795533879434
2025-03-05,00:05:37,1.2610236749909192,1.2107274316378143,1.0341572789776938
2025-03-05,00:05:38,1.055661593763216,1.1402720841530487,0.9696467364438927
2025-03-05,00:05:39,0.9470869743006367,0.9186777560655041,1.2022587726898528
2025-03-05,00:05:40,0.9862753197373556,1.1454981842125862,1.0760445350494494
2025-03-05,00:05:41,1.1274529097367882,1.1274486600704698,1.0341366532499998
2025-03-05,00:05:42,1.1757708412273011,0.9276634422569807,0.8267908102864892
2025-03-05,00:05:43,0.9668388023655596,1.1464477585590789,1.1252641589280836
2025-03-05,00:05:44,1.0945611106362128,1.0771131905454852,1.0209983496236648
2025-03-05,00:05:45,1.0017774794716683,1.1339091752722492,0.9538598391897624
2025-03-05,00:05:46,1.0902234040811458,0.9758926146037504,0.7997836811566295
2025-03-05,00:05:47,1.1370887665500287,1.112531756871553,1.1726480333698108
2025-03-05,00:05:48,1.2205007863510875,1.170074640441028,1.0528716024347424
2025-03-05,00:05:49,1.1721465501916515,0.9613149637764501,0.9885230774026916
2025-03-05,00:05:50,1.2392854826824298,1.0883021950360234,1.062048895056315
2025-03-05,00:05:51,1.0155659667204717,0.9163610919684875,0.9511006190530309
2025-03-05,00:05:52,0.9421726506590304,1.0209188957240791,1.1504299847752302
2025-03-05,00:05:53,0.9401506598444143,0.9419894945764232,1.0326845284926074
2025-03-05,00:05:54,1.117093074743138,1.0934496270527045,0.9757310924349438
2025-03-05,00:05:55,1.1774591476659664,1.138188965524628,0.9461517387957988
2025-03-05,00:05:56,1.1360570994224943,1.0097862420718497,1.0268641170940045
2025-03-05,00:05:57,1.104124447982031,1.0754344131986946,0.8657999169820364
2025-03-05,00:05:58,1.2070321029450495,1.163719443167522,0.9121003873949733
2025-03-05,00:05:59,1.1796464710137142,1.0188884433674599,0.9687624384199317
2025-03-05,00:06:00,0.9801318571293236,1.156831064623927,1.0488798681390075
2025-03-05,00:06:01,1.1008501994270998,0.8738164348350266,0.8152206379059027
2025-03-05,00:06:02,0.8247890953325918,1.2069261212452929,0.8893464901250362
2025-03-05,00:06:03,0.8813639948084104,1.0260086663121435,0.9687852377203032
2025-03-05,00:06:04,1.0972604016622713,0.9473907881853307,0.8401694714079508
2025-03-05,00:06:05,1.0346161974199668,0.9666842621480669,1.1271893975353493
2025-03-05,00:06:06,1.1861976354633494,0.9130180481541866,1.1314141395168154
2025-03-05,00:06:07,0.9471965700378696,0.8437843547287194,0.8815970870676296
2025-03-05,00:06:08,1.0291717381876533,1.0480716578212295,1.0557352460539282
2025-03-05,00:06:09,1.0389258016821334,1.004032437141636,0.8646551147324286
2025-03-05,00:06:10,0.9090511336927889,1.0120012775320038,0.9557919366664703
2025-03-05,00:06:11,1.0285880433023495,1.0154775910577776,1.0127304036167541
2025-03-05,00:06:12,1.3216572226857097,0.9960555874991506,0.9917200660153356
2025-03-05,00:06:13,1.1789641394709351,1.1201791802240357,0.9004576082345157
2025-03-05,00:06:14,0.8602314493848898,0.8081983406322736,1.1177869156798579
2025-03-05,00:06:15,1.0117748150486674,1.1641347830362276,0.9302295564322004
2025-03-05,00:06:16,1.1196278112907472,1.1894181560927088,1.023041081784272
2025-03-05,00:06:17,0.9907711691556089,0.9282805093435212,1.1340293187754527
2025-03-05,00:06:18,1.0719912067340358,0.9982026337435735,1.1565522724835724
2025-03-05,00:06:19,0.8770236154703195,1.1595425571282083,1.163208451449533
2025-03-05,00:06:20,0.9439371460509138,1.34714595071303,1.0170169866735472
2025-03-05,00:06:21,1.122159104991547,1.0461478075143542,1.0929710887515296
2025-03-05,00:06:22,1.015619234740193,1.2205486323615597,0.9680281134866048
2025-03-05,00:06:23,1.0821013827675006,1.008814215513263,0.9214517295149811
2025-03-05,00:06:24,0.9467894903976936,0.9468672330602995,0.9676054531727476
2025-03-05,00:06:25,0.8746031911096226,1.0244086177855372,0.8068424112341637
2025-03-05,00:06:26,1.1555862910035635,1.1151519119151372,0.9022581604922495
2025-03-05,00:06:27,0.877822455029208,0.9046874987370004,1.2072598199465387
2025-03-05,00:06:28,0.8414339425737213,0.9465923944594532,1.0598529375190378
2025-03-05,00:06:29,1.1138907571084413,1.0001871285513237,0.9885332188217881
2025-03-05,00:06:30,0.942639114054681,1.1095264280173636,1.0738318672684122
2025-03-05,00:06:31,0.937554026687218,1.0884486535485776,1.1678201076187782
2025-03-05,00:06:32,0.9212150570706454,0.9199012357785508,0.9331076504130754
2025-03-05,00:06:33,1.1147196961086419,0.978812249112319,1.0608473881828298
2025-03-05,00:06:34,1.0107788657687802,0.9749024642114833,1.2059815200676722
2025-03-05,00:06:35,1.1074511993531786,0.8220970610571023,1.1229022549374776
2025-03-05,00:06:36,0.9119230448330057,1.0898731442965,0.967117074455131
2025-03-05,00:06:37,1.1175627393229597,0.9158573967494167,0.8885017964943162
2025-03-05,00:06:38,0.9831240678375719,1.174211943010607,0.9323619301262122
2025-03-05,00:06:39,1.0788466459375676,0.8844681036747907,1.0833866469508533
2025-03-05,00:06:40,1.0405456840127716,1.2109104209151496,1.0082755608750933
2025-03-05,00:06:41,1.0576659696382478,1.1036253378839027,1.1461643358721911
2025-03-05,00:06:42,0.8407995469978831,1.2364550580380642,1.199043492632153
2025-03-05,00:06:43,1.104993731965191,0.926657276574092,0.967853394693514
2025-03-05,00:06:44,1.1756402291652992,1.0543482198069132,0.9901460502268222
2025-03-05,00:06:45,0.9556209941701012,1.0650439904340125,0.8975617012947293
2025-03-05,00:06:46,1.0957759794825774,1.0310014589967833,0.894166171063524
2025-03-05,00:06:47,1.0667218989352087,1.1184413409669454,1.1435170316106547
2025-03-05,00:06:48,1.2229471863431007,1.0787530314360316,0.9683232972902562
2025-03-05,00:06:49,0.9745784425135261,1.03796998342464,1.0086242378470318
2025-03-05,00:06:50,0.8544146912824282,1.1559634780292662,0.9227173838004153
2025-03-05,00:06:51,0.84538939125777,0.9920856471307102,1.0908485276474384
2025-03-05,00:06:52,1.1075374284996158,0.9187947809920325,1.1556821982211143
2025-03-05,00:06:53,1.1410358174444966,1.0578849706259439,1.2006995169559334
2025-03-05,00:06:54,1.1890485962727517,1.092170839363061,1.2112293949523416
2025-03-05,00:06:55,1.0753098731190134,0.8464884697538292,0.9612314629881247
2025-03-05,00:06:56,1.1827486090998403,0.8059794176025233,0.9163595008973556
2025-03-05,00:06:57,0.9785743264629284,0.8002069947847477,0.9203238719772622
2025-03-05,00:06:58,1.2270401147208507,1.0784205554178699,1.0315442012090632
2025-03-05,00:06:59,0.9657846698972968,0.9978062398737945,0.8530226468458094
2025-03-05,00:07:00,1.1424872816942946,0.853844602483255,1.0448930556192575
2025-03-05,00:07:01,1.2019557107174783,1.0701678306765132,0.8675233578994058
2025-03-05,00:07:02,0.8023194197055635,1.0839623773974678,1.0683890071395483
2025-03-05,00:07:03,0.9199241059678062,0.9494991932289274,0.8332388930995517
2025-03-05,00:07:04,1.1750711428467033,1.1542111693264985,0.917425153983649
2025-03-05,00:07:05,1.1560714207284575,0.9325282278608685,0.9816889003961085
2025-03-05,00:07:06,0.975473829029535,1.2032253671860305,1.0557553868754148
2025-03-05,00:07:07,1.0379673160983556,1.1836213942695804,1.1029152001435816
2025-03-05,00:07:08,0.9221838253159688,1.2213105594878917,0.9530824031624275
2025-03-05,00:07:09,1.1528701332847813,1.2522143474280518,1.2041534914161105
2025-03-05,00:07:10,1.1091026824269485,1.1579593304103766,0.8831514464392729
2025-03-05,00:07:11,0.9591965973024336,1.060152179071775,0.9460380038388412
2025-03-05,00:07:12,1.0673241363947674,1.3025722929024584,0.8646156969516194
2025-03-05,00:07:13,1.1776343274925023,0.9257961753333986,1.2532395610655847
2025-03-05,00:07:14,1.0826049662686317,0.9712228363561223,0.966456484905049
2025-03-05,00:07:15,1.046578983998922,1.0562594914706078,0.948663479745774
2025-03-05,00:07:16,1.042371328202866,1.0154161342130659,1.222397767949575
2025-03-05,00:07:17,1.0012998901608987,1.1110959142358163,1.0645389784899777
2025-03-05,00:07:18,0.9828478339282466,0.9079395684241487,1.1710570619965115
2025-03-05,00:07:19,1.095435528462405,1.2099333188302945,1.069695559023905
2025-03-05,00:07:20,0.9907531571394096,0.8859458546699376,0.8783778201867973
2025-03-05,00:07:21,1.0967466808980115,1.0648945564840808,0.9659254170816955
2025-03-05,00:07:22,1.0830084635872261,0.756694395071095,0.9591046488385058
2025-03-05,00:07:23,1.0463447621509068,0.9583412824494573,0.9259844503407624
2025-03-05,00:07:24,1.1616186965149626,1.2650425752789185,1.1208799415605648
2025-03-05,00:07:25,0.9444769503337627,1.120466481426661,1.070751326670788
2025-03-05,00:07:26,0.9785976143118653,1.1200361142225912,1.0531786686153568
2025-03-05,00:07:27,0.9736156004576796,1.0852219989815248,0.8785705556097331
2025-03-05,00:07:28,1.049036211922321,1.0862889715546864,0.8972852549166159
2025-03-05,00:07:29,1.064620582385846,1.0522212729539397,1.0881650994683145
2025-03-05,00:07:30,1.1899551654198341,0.9018294130488255,1.1324432880782718
2025-03-05,00:07:31,1.2104789349821727,0.941610359992423,0.969302726428389
2025-03-05,00:07:32,1.2047393633513495,1.086993841877822,1.2091128594677334
2025-03-05,00:07:33,1.1195181185101666,0.8712962460532203,1.0212399973035278
2025-03-05,00:07:34,0.8867363203651931,1.1379265056334533,1.0900169036474785
2025-03-05,00:07:35,0.9934617907848765,0.9862630600068399,1.1908468928594338
2025-03-05,00:07:36,0.9952759916652223,0.8772718175964334,1.1396256885475955
2025-03-05,00:07:37,1.2092210231259124,0.89772657531802,1.0777797307961292
2025-03-05,00:07:38,0.8591764021812732,0.8887466443512863,0.9071575856066206
2025-03-05,00:07:39,1.1365288209177984,0.869674212076141,1.2725299234447962
2025-03-05,00:07:40,0.92513727411396,1.1190194357218528,0.9744870479376787
2025-03-05,00:07:41,1.041600287029001,1.1736446189348053,1.065296457101145
2025-03-05,00:07:42,1.046567912564749,1.0600206449466516,1.18060946814221
2025-03-05,00:07:43,1.14928749681416,0.9684932538747779,1.0484133191896297
2025-03-05,00:07:44,0.8536994331052217,1.2544923571671531,1.0337635805298913
2025-03-05,00:07:45,1.030767099861154,1.0340620637933744,1.1654627178164747
2025-03-05,00:07:46,1.097609050380744,1.1300891979941576,0.8450014219167199
2025-03-05,00:07:47,1.0652518282302754,1.0956208310122826,1.174597240545016
2025-03-05,00:07:48,0.8713771816550726,0.923081003743625,1.058893942047834
2025-03-05,00:07:49,0.8844886637182398,0.9701025485364617,0.8588891681334959
2025-03-05,00:07:50,0.8827508386888501,1.0054807893537898,0.9599713369632004
2025-03-05,00:07:51,0.7103192020072955,0.9747181540780537,1.0554608108540982
2025-03-05,00:07:52,1.0730505650824385,0.8632275116078784,1.2657120313234513
2025-03-05,00:07:53,1.0350816167365546,1.1966676732515442,1.2044356928473918
2025-03-05,00:07:54,1.1459324351051527,0.9293715299344901,1.2303556252523855
2025-03-05,00:07:55,0.8966501387302604,1.1896341653159757,1.290052796800479
2025-03-05,00:07:56,1.162925862228035,1.064805451977077,0.953665443483699
2025-03-05,00:07:57,0.9482350767551997,0.9081393856619006,1.060623038336031
2025-03-05,00:07:58,1.1529056391338326,1.2880473882661563,1.0618566456760823
2025-03-05,00:07:59,1.1762000570269517,0.8850832893244979,1.0995874026947126
2025-03-05,00:08:00,1.2315044183330361,0.9980796205610252,1.1146380011545323
2025-03-05,00:08:01,1.027020128783892,0.9980070534457566,1.1862651873947339
2025-03-05,00:08:02,1.0358676089026748,0.9235517216452936,1.1638835847543851
2025-03-05,00:08:03,0.9791517981884216,1.0858004570460904,1.1381276993466503
2025-03-05,00:08:04,0.8693463955812128,0.9311438954653981,1.1706522755792517
2025-03-05,00:08:05,1.0527303863985489,1.207453176325902,0.961614555409246
2025-03-05,00:08:06,0.9382065867071475,1.153566757966777,0.8796232789309941
2025-03-05,00:08:07,0.9197519376419745,1.1113650711476373,1.2168809072205677
2025-03-05,00:08:08,1.0167371005085994,1.0341727595991892,1.073761740353154
2025-03-05,00:08:09,0.9504641212230381,1.0318002263156383,1.021567703193949
2025-03-05,00:08:10,0.9240840572931037,1.1731114361026949,1.139265655084823
2025-03-05,00:08:11,1.0810839348698151,1.1549342549054924,1.0530697325621476
2025-03-05,00:08:12,1.0756343413667984,1.2134607237747543,1.0265043248075714
2025-03-05,00:08:13,1.2223163926330467,0.9380872704843072,0.8817198296383523
2025-03-05,00:08:14,1.217658475766629,0.8481056970932085,1.1179209123743612
2025-03-05,00:08:15,0.8849880210123205,1.146181369557638,1.0259634940846536
2025-03-05,00:08:16,0.9159235192011163,1.108223555946057,1.1524262935813439
2025-03-05,00:08:17,1.1105083038097239,0.7885325294018665,0.9229213445760718
2025-03-05,00:08:18,1.0101412365025222,1.2034465854361809,1.1596397789296875
2025-03-05,00:08:19,0.9476411155409464,1.0605887438136723,1.0836555212434988
2025-03-05,00:08:20,1.1818638067091207,1.1253456670284805,1.1731504898485035
2025-03-05,00:08:21,1.011969234877391,1.1531616515745957,0.8846929817834496
2025-03-05,00:08:22,0.9653820268873832,0.9387292867788024,0.9572902537309043
2025-03-05,00:08:23,0.9621509070970139,0.9055902672872829,0.880076548630756
2025-03-05,00:08:24,0.8745724381536527,0.9624376342315162,1.0365907077800032
2025-03-05,00:08:25,0.9211637730669355,1.2450003177366284,1.1059265774040248
2025-03-05,00:08:26,0.9603084436740407,1.2160887726366774,1.0752038865960456
2025-03-05,00:08:27,1.0723838589360803,1.077854425966214,1.1391029055462725
2025-03-05,00:08:28,0.9879116292541997,0.909741055825912,0.9784450064411009
2025-03-05,00:08:29,0.9980448710633798,0.9810411001067066,0.9571150656793388
2025-03-05,00:08:30,1.0414554431568048,0.9978879695908233,1.0518522822142555
2025-03-05,00:08:31,0.859361453645577,1.203953827011897,0.7876415876250678
2025-03-05,00:08:32,0.922388334788577,1.1798531854689107,1.036784140202189
2025-03-05,00:08:33,1.1217900004458738,0.9389324900978129,1.0138677451074383
2025-03-05,00:08:34,1.239044934085181,1.016539176222381,1.0698569479449935
2025-03-05,00:08:35,1.1348323495754256,1.0289002051222729,0.9466542123143777
2025-03-05,00:08:36,1.0666827793983664,0.8794739929688054,1.1613964005131256
2025-03-05,00:08:37,1.0723794351595626,1.1083064002959562,0.8769388605136853
2025-03-05,00:08:38,0.828196032143437,0.8412691852899261,1.1404315566234366
2025-03-05,00:08:39,1.3022353932216892,1.0495064463449664,0.8946361992983829
2025-03-05,00:08:40,1.1514197276781835,1.1228932568978855,1.001062408942421
2025-03-05,00:08:41,1.2064821377219548,0.9316206925130709,1.0904879287028322
2025-03-05,00:08:42,0.8196773365038759,1.0122168541252943,1.0102843679733646
2025-03-05,00:08:43,0.9830362907372366,1.0553559919097748,1.1386814269830943
2025-03-05,00:08:44,1.0926145879778497,0.8887180143514757,0.9186709772965387
2025-03-05,00:08:45,1.0030976506991442,1.0161770937220311,0.9697940216552612
2025-03-05,00:08:46,1.1734678981363085,0.9558522104155158,1.1110291823910003
2025-03-05,00:08:47,1.2233045426139868,1.0806790609284513,1.0612032930180544
2025-03-05,00:08:48,1.0040018151797387,1.1492122641835278,1.2345677541582762
2025-03-05,00:08:49,1.1605990045680847,0.8705274824863409,0.9448535225347751
2025-03-05,00:08:50,1.131408764460265,1.1707669364206117,0.970496586732115
2025-03-05,00:08:51,1.0920491443560734,1.240688369049171,1.052850095769538
2025-03-05,00:08:52,1.0366364951381162,0.915327186559187,1.1131977011717546
2025-03-05,00:08:53,1.0246667605400608,0.9914065594449368,1.2279320289445044
2025-03-05,00:08:54,1.0742847840174639,0.8880960585384476,1.1282461040773306
2025-03-05,00:08:55,0.8755897556910306,0.9840432122218109,1.0509210986973887
2025-03-05,00:08:56,0.8505739287763093,1.0075922402774706,1.167549272159249
2025-03-05,00:08:57,1.0060432815117202,1.0117001751637784,1.0779558222604708
2025-03-05,00:08:58,1.0672530136587597,1.0900274799478493,1.01051318516617
2025-03-05,00:08:59,1.187166436570053,0.9146180069916001,1.0879087004545251
2025-03-05,00:09:00,1.0511290830656996,1.0023943885335047,1.1042593275471244
2025-03-05,00:09:01,1.011302714631275,1.2895686317892814,1.0807329672302604
2025-03-05,00:09:02,0.8577863687906602,0.9837951152940616,1.1971840190961254
2025-03-05,00:09:03,0.8698479643304956,1.1240885209324,0.9681503005316177
2025-03-05,00:09:04,1.2283224034731077,0.8514988525529756,1.013698437444875
2025-03-05,00:09:05,0.987775041738112,1.0561575386672397,1.1297218593836955
2025-03-05,00:09:06,1.1193143790151385,0.8440520879233532,0.9374762887309288
2025-03-05,00:09:07,1.029613028023958,1.1993777436424515,1.1701004626129496
2025-03-05,00:09:08,1.1492262187664533,0.9584639846971916,0.9441521743064617
2025-03-05,00:09:09,1.1009521130366542,1.1764482350331058,0.9638012853235357
2025-03-05,00:09:10,0.9830971809966514,0.8707529886106068,1.153657397620926
2025-03-05,00:09:11,0.9598921848725954,1.1017927885080407,1.102265281902787
2025-03-05,00:09:12,1.0537101584924573,0.9992788832933462,0.8847195431226111
2025-03-05,00:09:13,1.2475873437110043,1.2783776291810656,0.9612983696306678
2025-03-05,00:09:14,1.0882009379586872,0.877067770324988,1.1821523148606823
2025-03-05,00:09:15,1.2027131240399467,1.0184874880831756,0.8585665131932743
2025-03-05,00:09:16,1.0488554441312066,1.1461405467949788,1.1230962575372696
2025-03-05,00:09:17,0.8338276582699731,0.8949050779900042,1.1098434758458606
2025-03-05,00:09:18,0.8772582847827747,0.960188555453514,0.9715480950853926
2025-03-05,00:09:19,1.0761064763752026,0.9748151868631019,1.1203839387510464
2025-03-05,00:09:20,0.9721451558567855,1.0945187374764063,1.078075879469531
2025-03-05,00:09:21,0.9556298545108173,1.0903355596938722,1.1675061136995308
2025-03-05,00:09:22,1.1990530643580124,0.9638595686465791,0.938984461409299
2025-03-05,00:09:23,0.885393188681823,1.122421901691275,1.011434068001283
2025-03-05,00:09:24,0.8989439862075186,0.9552057987567774,1.169585516140242
2025-03-05,00:09:25,1.0722763915475353,1.0915156998760225,0.9636683372283731
2025-03-05,00:09:26,0.9368243338326799,0.764641037074239,1.033883560890371
2025-03-05,00:09:27,1.0780935075219271,0.8772762715355156,0.9788501220575504
2025-03-05,00:09:28,1.191875031103782,1.162592547167166,1.0039698254975615
2025-03-05,00:09:29,0.9122645343352939,1.0532051907367317,0.9755813925320506
2025-03-05,00:09:30,1.2192933646075281,0.8772452326904416,0.9552573556714316
2025-03-05,00:09:31,1.1821217852726755,0.9357726112718268,1.1138121806189951
2025-03-05,00:09:32,1.1480641466573636,0.8425484643432143,1.0106893287834107
2025-03-05,00:09:33,0.9575960719906832,0.9060115536133782,1.0387161781058882
2025-03-05,00:09:34,1.178210311131432,1.0849510399675282,1.080704763620905
2025-03-05,00:09:35,0.9999383759875975,1.180892868986002,0.8234033110161713
2025-03-05,00:09:36,0.9908273441793382,1.0391703344845014,1.203196773562008
2025-03-05,00:09:37,1.153522061576925,1.1711144612031787,0.9076297875709167
2025-03-05,00:09:38,1.0440591294345545,1.0944744159027229,0.9110864253669301
2025-03-05,00:09:39,0.8860955322016484,1.131362964739372,0.8747231582827815
2025-03-05,00:09:40,1.1804208714455606,1.0289160706989051,1.089615621122163
2025-03-05,00:09:41,1.1175107612166666,0.9659150573301122,0.9464984887535207
2025-03-05,00:09:42,1.1064879370452414,0.9988463632397571,1.0076608292495475
2025-03-05,00:09:43,1.164576023985963,0.9144432537747529,0.989345327150014
2025-03-05,00:09:44,0.9907952178377466,0.862831881959957,0.9878449082097793
2025-03-05,00:09:45,0.9031235828713537,1.2090060533620681,0.9482177964944247
2025-03-05,00:09:46,1.1236684020468592,1.1340075441879813,0.9259957482191346
2025-03-05,00:09:47,1.0524851696939892,1.0936326330395658,1.128812457142569
2025-03-05,00:09:48,0.9599807271059788,0.8761255234325303,0.9488205486220623
2025-03-05,00:09:49,1.0230467460398784,1.072676503079728,1.1041733378033856
2025-03-05,00:09:50,1.1254958711882448,0.9583070873452962,1.1599090493800426
2025-03-05,00:09:51,0.9645710850937191,1.0149792569904401,1.0756157723955089
2025-03-05,00:09:52,1.0399174882762043,1.1681359695717821,0.8591924999163457
2025-03-05,00:09:53,0.9026040434259848,1.184833962382923,1.220146928297579
2025-03-05,00:09:54,1.0844487042789988,1.0485943322359375,0.8871924651316553
2025-03-05,00:09:55,0.8743688252511886,0.9892227774167013,1.1746918144000946
2025-03-05,00:09:56,1.0436742400467363,1.037355892349331,1.0521645526415067
2025-03-05,00:09:57,1.2280469178980056,1.0451008335699257,1.0833487649622822
2025-03-05,00:09:58,1.1973131969845545,1.0719087319843785,0.9826145489311497
2025-03-05,00:09:59,1.0978543517630972,1.039646706909702,1.0551759555941407
2025-03-05,00:10:00,0.9389898019455317,1.0571582991373416,0.983606630615188
2025-03-05,00:10:01,1.2224918660450383,1.001241871115643,0.9418395549411732
2025-03-05,00:10:02,1.086201421937725,1.098919343974837,1.1583285477197964
2025-03-05,00:10:03,0.8942203089583431,0.9803600877552645,1.1750708331564501
2025-03-05,00:10:04,1.1266750394697378,0.8931486358745369,1.0349744748240144
2025-03-05,00:10:05,1.017855825003456,1.0354889676863899,0.9507280626890886
2025-03-05,00:10:06,1.0838706866134433,1.0636554438002417,0.9565696673439099
2025-03-05,00:10:07,1.0271291438222068,0.9524509349685882,1.1906584331698924
2025-03-05,00:10:08,0.8679993838777119,0.9501108410686977,0.8828055979577998
2025-03-05,00:10:09,1.0500637452864243,1.1961140677861524,1.067356613720641
2025-03-05,00:10:10,0.9629505881091615,1.078694888897627,1.113624979273527
2025-03-05,00:10:11,1.0489928988927992,0.864993132310252,0.8923883900015965
2025-03-05,00:10:12,0.924005707357351,1.2194287890696207,0.9272624880967957
2025-03-05,00:10:13,1.106516408136665,1.2295327948351216,1.0375612594137866
2025-03-05,00:10:14,1.0073208827774336,0.9717219284660183,1.0427580897101494
2025-03-05,00:10:15,0.9612257316983619,1.1204849747872117,1.1757904094464535
2025-03-05,00:10:16,0.9180474206664958,0.9497250846445872,1.0377652406780884
2025-03-05,00:10:17,1.289089304605224,1.2408914698471916,0.9539179854192743
2025-03-05,00:10:18,0.9419123893083082,1.074834591520545,0.9385504404951851
2025-03-05,00:10:19,1.0677798202983058,1.04815487445054,0.8767105879483191
2025-03-05,00:10:20,1.0296602207115642,0.9210175242205152,0.7864131035545241
2025-03-05,00:10:21,0.9975732431172312,0.7816129115362683,0.7608415177172363
2025-03-05,00:10:22,0.9344566338805488,1.1208810068631678,0.93582190816662
2025-03-05,00:10:23,0.9012836796953091,1.1722767895325712,1.1509651006124493
2025-03-05,00:10:24,1.00755796325153,0.889965013441406,1.044340954274184
2025-03-05,00:10:25,1.053380915438385,0.9373016799619996,1.2013699690870712
2025-03-05,00:10:26,1.1736543176996843,0.9448637911898647,0.9860629793378919
2025-03-05,00:10:27,1.0037557564709063,0.9003145009930444,0.9247709966183734
2025-03-05,00:10:28,0.9342343370963159,0.9700881302757033,0.9345211595846745
2025-03-05,00:10:29,1.0021468091314438,1.033960422842278,0.9211730415325815
2025-03-05,00:10:30,0.9674775697818071,1.1257704801706778,0.9682423274577596
2025-03-05,00:10:31,1.0799345183125713,1.159884369407001,1.2847529678708667
2025-03-05,00:10:32,1.0349411916983475,1.1714177158866954,1.0042683996771702
2025-03-05,00:10:33,1.1508703288335658,1.033654538871939,0.8728797827450854
2025-03-05,00:10:34,1.1299519292208402,1.149001067673666,1.026494198034601
2025-03-05,00:10:35,1.0604451300921844,0.9667571775810616,1.1489878232728437
2025-03-05,00:10:36,1.1766451247053589,1.0428058592339697,1.0366878037835339
2025-03-05,00:10:37,0.9772307450271054,0.9326242739392102,1.1021950271409562
2025-03-05,00:10:38,0.9780561412568638,1.054679822434256,1.0604345362685097
2025-03-05,00:10:39,1.101741285655938,1.0353501550192372,1.1380600467350162
2025-03-05,00:10:40,1.0723271291372127,0.9652162433330247,1.0186223243180879
2025-03-05,00:10:41,1.1917674534028064,1.1759740956386286,0.878933811334335
2025-03-05,00:10:42,1.0440856816510988,1.153741277312613,0.9252118321833211
2025-03-05,00:10:43,0.9230841327318453,1.0618542810170182,0.9078534416557705
2025-03-05,00:10:44,1.0505637682151368,1.2091647417638078,1.1446336892198805
2025-03-05,00:10:45,1.0093725104160347,1.1550970522202184,1.0099356732055633
2025-03-05,00:10:46,0.8353629443840941,1.2357539267548456,1.1806408678941325
2025-03-05,00:10:47,0.943438091588516,1.0580321592956459,1.0158891954089584
2025-03-05,00:10:48,0.9941673530359385,0.9970751874235594,1.1599182418397447
2025-03-05,00:10:49,0.8923088098533303,0.9200337536080552,1.1301972298027185
2025-03-05,00:10:50,0.9731131662871735,1.2128603705886463,1.0903186168029266
2025-03-05,00:10:51,1.2062309956417887,1.0508609487326224,1.0281643702149492
2025-03-05,00:10:52,1.0921416936850497,1.1644047120863614,1.0960490572278188
2025-03-05,00:10:53,1.1368967821645186,1.0848357969216382,0.9664028480494615
2025-03-05,00:10:54,0.9157137203431945,1.0191259851951846,1.06791813570186
2025-03-05,00:10:55,0.9382892617679546,1.1817544980730181,1.1223694542436096
2025-03-05,00:10:56,0.9900346157803693,0.8132011363193943,1.1019595713099726
2025-03-05,00:10:57,0.8373397609317401,0.9283654596220953,0.8316201342087893
2025-03-05,00:10:58,0.9322316108703311,0.9131061336516818,0.8643600431803352
2025-03-05,00:10:59,1.177445987787073,0.8558146531998014,1.0768001316120945
2025-03-05,00:11:00,0.9944945528748252,1.1623739243374231,0.9786915316198955
2025-03-05,00:11:01,1.0091388565072394,1.090161052819968,1.034038098911317
2025-03-05,00:11:02,1.1816843679842053,1.1675770579403713,0.9191669845823257
2025-03-05,00:11:03,1.1740408665792195,0.9905464646007734,1.2799919278817582
2025-03-05,00:11:04,0.942968310038251,0.947742120220615,1.079176564545716
2025-03-05,00:11:05,1.1809207869559746,1.0700224387265287,1.0768692367978199
2025-03-05,00:11:06,1.092756329506325,0.9675679906788038,0.7877698279402678
2025-03-05,00:11:07,0.8597783186305336,1.0169571294237811,0.9023669587468216
2025-03-05,00:11:08,1.2030131150304109,0.9697785103549744,0.9977191192996175
2025-03-05,00:11:09,0.9053276035761689,1.050533455460569,1.2158940280654478
2025-03-05,00:11:10,1.028850528492086,1.1166712856270766,0.9024176576030116
2025-03-05,00:11:11,1.1287573573564482,0.8065309805485255,1.093140182802657
2025-03-05,00:11:12,0.8888007456236584,1.2148276673791918,1.1056314059452665
2025-03-05,00:11:13,0.8982993019059188,0.9442818634392546,0.9602453701160556
2025-03-05,00:11:14,1.21750939089784,1.1710696323591048,0.9691511397337891
2025-03-05,00:11:15,1.0784233260082376,1.0139735886271593,0.8535194200174269
2025-03-05,00:11:16,1.1561661066073365,0.9851469256767368,1.0853410329644015
2025-03-05,00:11:17,1.0235685317791947,0.8605981251311087,0.8894195315815714
2025-03-05,00:11:18,1.1053511121193367,1.264030694051075,0.8677241077422274
2025-03-05,00:11:19,1.0081101358640023,0.9894691587398255,1.1232315050455894
2025-03-05,00:11:20,0.9103814058358933,1.0220292259328678,1.0402976211226478
2025-03-05,00:11:21,1.0520022854466429,1.0282555489585967,1.0095016150096803
2025-03-05,00:11:22,0.8644147450628468,0.9853655816217728,1.2348419170191696
2025-03-05,00:11:23,1.0014758022732546,0.9138101404137912,1.072437866861323
2025-03-05,00:11:24,0.9590541831640073,0.8068581206245832,1.0021341544814089
2025-03-05,00:11:25,0.954942921068986,1.130700767167549,1.0285182685685736
2025-03-05,00:11:26,0.9148918896416444,1.0868122319638027,1.083841256517211
2025-03-05,00:11:27,1.1275148496650926,0.8883040616110359,1.0251528280881623
2025-03-05,00:11:28,1.154736340089718,0.9932725474376166,1.017936383179712
2025-03-05,00:11:29,0.9434802772648021,0.9819542208324281,0.9544665744495381
2025-03-05,00:11:30,1.181825822599944,0.9215765033232591,1.0094256956398049
2025-03-05,00:11:31,0.9904111111545408,0.9618813836808483,0.8568567684435572
2025-03-05,00:11:32,0.9169527430180083,0.9473009131877984,1.0045351593886276
2025-03-05,00:11:33,1.0763522004438875,1.1774972600373828,0.9612386538668639
2025-03-05,00:11:34,1.0620631717263083,1.1533714422746963,0.9732362803678866
2025-03-05,00:11:35,1.0712157898519765,0.9365738933226817,1.1845110987780212
2025-03-05,00:11:36,0.8100291027659632,0.9622689197970271,1.0108663326670884
2025-03-05,00:11:37,0.9349770016564461,1.046137822532912,0.9231593748114226
2025-03-05,00:11:38,1.2613738767287048,0.9621675649985403,1.1468038278039876
2025-03-05,00:11:39,0.9245143784386837,1.212449437130251,0.8966530144859637
2025-03-05,00:11:40,1.0371262940035644,1.118298441954094,0.8840110273132846
2025-03-05,00:11:41,1.030291550995284,0.9709671646861916,1.139854363422998
2025-03-05,00:11:42,0.9174071220462607,1.0554196830297107,1.137849667007374
2025-03-05,00:11:43,1.0236334851437976,1.084399482309705,0.8906505658579557
2025-03-05,00:11:44,1.049118868221801,0.940886021009759,1.1635701664445637
2025-03-05,00:11:45,1.1256931243733377,1.123108814141125,1.204236732785575
2025-03-05,00:11:46,0.9670726481117723,1.0686449573924672,1.0873978982658172
2025-03-05,00:11:47,0.8940720826333318,1.1009287421241136,1.1412081799967477
2025-03-05,00:11:48,1.1175245513339422,0.9585494817949706,0.9582127238528512
2025-03-05,00:11:49,1.1237365825151577,0.8732199000067608,0.8890284238300207
2025-03-05,00:11:50,1.1450882545542185,1.2043647718202328,1.2595413299862395
2025-03-05,00:11:51,1.1022211937014623,0.8947028670346681,1.051002245503509
2025-03-05,00:11:52,1.1579404423965314,1.1978143977358766,1.0867868315568125
2025-03-05,00:11:53,1.0472838327243785,0.871641646090248,0.9212628386400379
2025-03-05,00:11:54,1.1007428672315376,0.9136696039366752,0.9509896996739428
2025-03-05,00:11:55,0.9866825191062168,0.9768150435691908,0.9081776327272896
2025-03-05,00:11:56,1.1091797151545892,1.1423360043986017,0.9880504197157706
2025-03-05,00:11:57,1.1855393453961685,0.9532276619037056,1.1681548936105797
2025-03-05,00:11:58,1.043957876290223,0.9022248250414446,1.3168365236499386
2025-03-05,00:11:59,0.8489539987399578,0.9834676951560627,0.9780902798613521
2025-03-05,00:12:00,1.0357894671245127,1.150278863933926,1.2051539080543063
2025-03-05,00:12:01,1.2616139436427998,1.3093029084594832,0.8807915578539323
2025-03-05,00:12:02,1.0897462444295953,0.8606943425491002,0.9396142511161876
2025-03-05,00:12:03,0.9095420768745678,1.210275216754624,0.9692224806106128
2025-03-05,00:12:04,1.0520404315714778,1.2269329673303435,0.8888057131666555
2025-03-05,00:12:05,0.9964257219111197,1.236806133493908,1.1369960849773921
2025-03-05,00:12:06,0.9597206714338964,1.0453416958454176,0.888966522325694
2025-03-05,00:12:07,0.8768018011407327,1.0079429113694371,1.0992767382948174
2025-03-05,00:12:08,1.0983624462132888,0.9477163879719389,0.9742856157271091
2025-03-05,00:12:09,0.7987885649216897,1.2053006871028265,0.966599748270062
2025-03-05,00:12:10,1.021933803758852,1.0170567898018166,1.110313163999546
2025-03-05,00:12:11,1.0913026942038735,0.8634494742479851,1.073087798002481
2025-03-05,00:12:12,0.9845780317168148,1.076694770683344,1.0490511244107514
2025-03-05,00:12:13,0.9976180074659762,0.9070691321614072,0.9526363855286936
2025-03-05,00:12:14,1.0026761814977025,0.9597951653115887,1.1236844048185595
2025-03-05,00:12:15,0.9275839450665024,1.141729411358216,1.1053326380459754
2025-03-05,00:12:16,1.1234536406536222,0.9128176583668774,0.8452703097460358
2025-03-05,00:12:17,1.082666787270389,0.9269375785543293,1.18950246261716
2025-03-05,00:12:18,0.9541424045643605,1.1311790612066144,0.901439964884162
2025-03-05,00:12:19,1.1855714857399597,0.8922745435872272,1.1644710689671463
2025-03-05,00:12:20,0.8360691884238277,1.1424696543843924,1.2138471659842356
2025-03-05,00:12:21,1.0093323465667234,1.1013226926908288,1.1180949574079158
2025-03-05,00:12:22,1.1761506618749422,1.1723278743176084,0.8584115920205213
2025-03-05,00:12:23,1.1047613633671498,1.1949482294240914,1.1946372217770866
2025-03-05,00:12:24,0.9815171530055807,0.753416101732099,1.1057544359601195
2025-03-05,00:12:25,0.9867099319088231,0.9782044700128723,1.0735826923110434
2025-03-05,00:12:26,1.1164318410468885,1.1821062606964137,0.9876221526473002
2025-03-05,00:12:27,0.8679250394860901,0.9909849629154889,0.8370177636194219
2025-03-05,00:12:28,1.113735222776392,1.1447967848825913,1.171820445956732
2025-03-05,00:12:29,1.0701931083378784,1.1581376769659848,0.9718405583324853
2025-03-05,00:12:30,1.1644972459376268,1.085395260541488,0.92266801159871
2025-03-05,00:12:31,0.9323429593817686,0.7834981209120963,1.0882291038036032
2025-03-05,00:12:32,1.0817414186706884,1.1414125780629831,0.9152075781711861
2025-03-05,00:12:33,0.8910803508919264,0.9501162824082376,0.8832954574626138
2025-03-05,00:12:34,1.1559433915779143,0.9665906343842181,1.2429508065772126
2025-03-05,00:12:35,0.909921377443686,1.0932924373439,1.1929731195947642
2025-03-05,00:12:36,0.9985485842066475,1.0496695853251015,1.2197772037766905
2025-03-05,00:12:37,1.2305126767997854,0.9765371024930628,0.9111057283826683
2025-03-05,00:12:38,0.8696149519473619,1.1581486387711553,1.1790069628418365
2025-03-05,00:12:39,1.1592675295096653,0.8431213951754081,1.0815316581790126
2025-03-05,00:12:40,1.1027535138032818,0.9389971267196912,0.8481544772534113
2025-03-05,00:12:41,0.7891761883655861,0.8532233717659562,0.9743681436764643
2025-03-05,00:12:42,1.2207156108719572,1.0262631939448852,0.8316705813745662
2025-03-05,00:12:43,1.1780718049060388,1.001141322359446,1.2349084034504774
2025-03-05,00:12:44,0.9430746854094806,1.1615778297987551,1.0713741325726094
2025-03-05,00:12:45,0.7678431532913218,1.0779726218766323,1.1215615723326684
2025-03-05,00:12:46,0.9053187977348456,1.1005681534044074,1.111193082908549
2025-03-05,00:12:47,1.176993591749406,1.0363167260299055,0.9769164172312874
2025-03-05,00:12:48,0.9825203144893899,1.0607754284761581,1.005919360938333
2025-03-05,00:12:49,0.9025898644319298,1.1869550081640874,0.915667589423656
2025-03-05,00:12:50,0.8388684201262265,1.2023317264461353,1.1035773892072966
2025-03-05,00:12:51,1.0701422439747559,0.9615211567464509,1.116223526124564
2025-03-05,00:12:52,0.9340003980530627,0.8901129934093887,1.0080413697904054
2025-03-05,00:12:53,1.1629055181885697,0.945963522053958,0.9069231665775564
2025-03-05,00:12:54,0.9543584269034149,0.8637102998319179,1.0750854810938273
2025-03-05,00:12:55,1.0550316992242408,1.341310916535876,0.9648186765634545
2025-03-05,00:12:56,1.212896686472211,0.8824612271639936,0.8233354443249545
2025-03-05,00:12:57,0.8455681480550463,1.0091625139091736,1.0090058908041095
2025-03-05,00:12:58,1.1433115751159864,0.9550105841974775,1.217339982361713
2025-03-05,00:12:59,1.050197740950268,0.9447478883270849,1.1230936602941357
2025-03-05,00:13:00,0.9540249383819451,1.1376382956570459,0.7891715151651674
2025-03-05,00:13:01,1.0000442097682274,1.192194453508708,0.9230939294754829
2025-03-05,00:13:02,1.1540889172683217,0.8897459074408998,1.1028234728825939
2025-03-05,00:13:03,0.9485221904310112,0.8160955616819585,0.9460032594681883
2025-03-05,00:13:04,1.2257043310999007,1.0566192552042089,0.9296130829707039
2025-03-05,00:13:05,1.0016678431033847,1.267474923202407,0.9182077749325567
2025-03-05,00:13:06,1.0607341104866594,1.0374218653992875,1.1489677119842765
2025-03-05,00:13:07,0.9569143183341354,0.8436494722574275,1.0612955367404897
2025-03-05,00:13:08,1.2229162996076777,1.1617250775070251,0.999826279211579
2025-03-05,00:13:09,0.9069986424439828,1.1111809805845625,1.0852993453991544
2025-03-05,00:13:10,1.1478976838686061,1.0145819015677646,1.0150668641901233
2025-03-05,00:13:11,0.9401913079012676,1.2216690078831838,1.0759431818055012
2025-03-05,00:13:12,0.9049103315112238,1.012009914934372,0.8945863142979507
2025-03-05,00:13:13,0.8051498620772504,1.2212065599223823,0.8583557658762392
2025-03-05,00:13:14,1.1768354498512748,1.1739649715629246,1.0688264776056315
2025-03-05,00:13:15,1.0206527163211667,1.016198660368041,1.008023376357234
2025-03-05,00:13:16,1.0437798349286302,0.8376209497050277,1.1657660452650742
2025-03-05,00:13:17,1.2069420417210501,1.1713398801422215,1.2317564695508156
2025-03-05,00:13:18,1.0726940781453829,0.8400175492018623,1.0837321101614361
2025-03-05,00:13:19,0.862496599306428,1.2180896380155535,0.8492217006074891
2025-03-05,00:13:20,0.8657268143180965,1.0740548514850743,1.0554857729772018
2025-03-05,00:13:21,1.0690213783554658,1.083967048656427,1.1881049648584914
2025-03-05,00:13:22,1.0660245095045866,0.8549534454052236,0.8707096023203157
2025-03-05,00:13:23,0.9323689756274895,1.1970792158506305,0.9552767066997461
2025-03-05,00:13:24,1.0768541307321005,0.9032390933779608,0.8724722046284883
2025-03-05,00:13:25,1.0586359249449162,1.1450601816804904,1.2618372731564165
2025-03-05,00:13:26,1.1764113045933768,0.9223148968133248,0.8396368171636813
2025-03-05,00:13:27,0.9449015107580823,1.044471485299251,1.2290700137073145
2025-03-05,00:13:28,0.9536135332685806,1.0358758252639246,0.9508420288004406
2025-03-05,00:13:29,1.1812653709195908,0.9960310711573857,1.099879988705535
2025-03-05,00:13:30,1.0992985159805337,0.991226234160358,1.1429243671214426
2025-03-05,00:13:31,0.9813016777023801,0.9977164713228528,1.0003852297175613
2025-03-05,00:13:32,1.1863787925897968,1.049774344576224,1.1895891417578153
2025-03-05,00:13:33,0.9838352290835976,1.0747992337603471,1.2268751221560252
2025-03-05,00:13:34,1.0098233119412785,0.9925815214619423,1.1917372613019652
2025-03-05,00:13:35,1.0822242879757349,1.1253173191753918,0.9669292738138981
2025-03-05,00:13:36,1.0417194174001585,1.1380889698469367,0.978043406518305
2025-03-05,00:13:37,0.8276544240180801,0.9482986949550105,0.985553479519309
2025-03-05,00:13:38,1.0214746290868086,0.8657763079638526,1.0909390484248886
2025-03-05,00:13:39,1.0692824919420674,1.1739604231431744,0.9441769988193139
2025-03-05,00:13:40,1.2327842627256946,0.9792933870881977,0.9623566911970431
2025-03-05,00:13:41,1.0960730340531346,0.866336875604373,1.229573677450928
2025-03-05,00:13:42,1.1447440113728722,0.9272833847251033,1.2507908524218672
2025-03-05,00:13:43,0.9864292287359427,1.1748500604481344,0.9172214050920765
2025-03-05,00:13:44,1.0514987803658868,1.2065780368820267,0.8712596078379583
2025-03-05,00:13:45,0.9318304194294286,1.165373429780271,1.1571139178181873
2025-03-05,00:13:46,0.8602192292449377,1.1842765883168294,1.087233847100846
2025-03-05,00:13:47,1.1203647223989053,1.1330403546145114,1.1334704471791321
2025-03-05,00:13:48,1.0905300557970836,1.0810196311574638,0.9389934108006153
2025-03-05,00:13:49,0.8464471157481479,0.9696276870716146,0.8868507058950754
2025-03-05,00:13:50,0.9464033771558237,1.0517322060506185,1.1536037138355473
2025-03-05,00:13:51,1.086606911727135,0.9630662390024332,1.0237557402667727
2025-03-05,00:13:52,1.0548579984941058,1.1729651807435617,0.9567631997409277
2025-03-05,00:13:53,1.0176892786473803,0.8653774704934607,1.0875495985940498
2025-03-05,00:13:54,1.001706563990992,0.8369690401501276,1.0406901141824494
2025-03-05,00:13:55,1.0302384770727335,1.2749983996171317,1.149653210669228
2025-03-05,00:13:56,1.1067908041151424,1.209236927935493,0.8624090026453083
2025-03-05,00:13:57,1.0347595438956005,1.039675657457359,1.1713955743221622
2025-03-05,00:13:58,1.2275689279660318,1.1235956488245993,1.0106568966235088
2025-03-05,00:13:59,0.8519207807231287,0.9577480405657278,0.9898732169612307
2025-03-05,00:14:00,0.9683575083525455,1.1120051524833332,0.9712313679572544
2025-03-05,00:14:01,0.9083889094033853,0.9080453420871313,1.0495976650012755
2025-03-05,00:14:02,1.1151833211946949,1.1286144878045872,1.082780247909649
2025-03-05,00:14:03,0.8961785025128467,0.9673890289466841,0.8985746080215387
2025-03-05,00:14:04,0.8839997840833316,0.9118030581606111,0.8965373533227179
2025-03-05,00:14:05,1.0980765052154962,0.8350791970429939,1.1794010041705831
2025-03-05,00:14:06,0.9641045555970019,1.1137151657916173,1.181453975221294
2025-03-05,00:14:07,0.9336722808981596,0.9611473495819486,1.0833127234897562
2025-03-05,00:14:08,0.8805774077465539,1.0494922522204686,1.0791747610148508
2025-03-05,00:14:09,1.0820327682438535,0.9023109157697113,1.0845191043214082
2025-03-05,00:14:10,0.9309075172247546,0.9869206720810872,0.8861684325753652
2025-03-05,00:14:11,0.8587080901078514,0.9565684415016507,1.1216251337292074
2025-03-05,00:14:12,1.0771364755913664,1.0498959145050222,1.182333333479838
2025-03-05,00:14:13,1.0436880752294733,0.9117157013408689,1.1189650202650607
2025-03-05,00:14:14,1.033964440001564,1.0392107381921658,0.9164157382119187
2025-03-05,00:14:15,1.071456808542333,0.911839070120475,1.107230547845618
2025-03-05,00:14:16,0.9611976346648303,1.2405260736139943,0.7845911050273675
2025-03-05,00:14:17,0.9881776135462143,0.9794950622568048,1.0301722065843868
2025-03-05,00:14:18,1.0322639142963563,1.1045623106906182,0.9797418846789151
2025-03-05,00:14:19,0.8492253986100987,1.0972790094398102,1.0250505519048547
2025-03-05,00:14:20,1.1882206539358788,1.1927618102235813,1.0654272785297279
2025-03-05,00:14:21,1.1266004806190726,1.1618849147684596,1.1122534365651784
2025-03-05,00:14:22,1.0497893655827104,1.1711317621771329,0.9587866887412891
2025-03-05,00:14:23,1.0884736841388285,0.9484981804217074,1.0252623742245732
2025-03-05,00:14:24,1.0615901749452448,1.1960231365462426,1.0465303519975002
2025-03-05,00:14:25,1.1630005958086846,0.8401803865786025,0.8784528054312665
2025-03-05,00:14:26,1.0719293530507175,1.2238470881481718,0.9921340306246457
2025-03-05,00:14:27,1.0337105494721999,0.9275814843342871,0.8685643667805869
2025-03-05,00:14:28,0.8582806848987995,0.933288487510603,0.9501072371304626
2025-03-05,00:14:29,1.1208162300541809,1.0276896120813122,0.9818692924779098
2025-03-05,00:14:30,1.15375367868783,0.8748442058033752,1.1079406700088323
2025-03-05,00:14:31,1.0823025944019746,0.9124100083107963,1.047241604115635
2025-03-05,00:14:32,0.9366452895559371,1.148174795931094,0.9841335808354356
2025-03-05,00:14:33,1.3199031497611187,1.092056388085306,0.9650618109700465
2025-03-05,00:14:34,1.114727577836522,1.0022490490649358,1.114642736707241
2025-03-05,00:14:35,0.8607839686820062,0.9036270554053737,1.155271962978251
2025-03-05,00:14:36,0.9613856615590052,1.1420427828545054,1.135066726082225
2025-03-05,00:14:37,1.0516056138611665,0.9518397942364001,1.166386381282497
2025-03-05,00:14:38,1.1835478268169688,0.9847761158116444,0.9744698481644581
2025-03-05,00:14:39,1.0140719212154625,1.0608223511224673,0.9653114649345323
2025-03-05,00:14:40,1.2004480274432798,0.8726468399813915,1.1477792508503768
2025-03-05,00:14:41,1.0941386653268756,1.2033695153184572,0.9869224806697913
2025-03-05,00:14:42,1.0398823489353537,1.2197886135177913,1.0819697553373258
2025-03-05,00:14:43,0.9790816966115442,1.0806056926459378,1.1336205095434615
2025-03-05,00:14:44,1.0364808551553948,0.9122001688762951,1.013943256938842
2025-03-05,00:14:45,0.9144117500143284,1.196130498035111,1.0522622340715302
2025-03-05,00:14:46,0.9283432071088146,0.9821730374028576,0.9340342760688455
2025-03-05,00:14:47,1.2190343158231904,0.8719306427994693,0.9164087203620942
2025-03-05,00:14:48,1.1458611658111766,1.0427680268850283,0.877151126280951
2025-03-05,00:14:49,1.1112934953504081,0.9855072666437519,0.8695616272373646
2025-03-05,00:14:50,1.1096290817054073,1.0242994323785954,0.903338680102833
2025-03-05,00:14:51,1.134833363426753,1.062954597659004,0.998674111653548
2025-03-05,00:14:52,1.1282931314441782,1.1285650663966622,1.0291543094864626
2025-03-05,00:14:53,1.0798747118831666,1.0978884812128287,0.9874413106867898
2025-03-05,00:14:54,1.010630218144253,0.8460720215391099,1.0665733318375115
2025-03-05,00:14:55,1.2326357269805037,1.1803065956464052,0.9107446953455017
2025-03-05,00:14:56,0.9000343793438085,1.0525623771537405,0.9335280983122776
2025-03-05,00:14:57,1.203892430337219,1.1131517440210346,0.9798347822633002
2025-03-05,00:14:58,1.0832046182536457,1.06966528841694,0.8898697064919232
2025-03-05,00:14:59,1.0316072137125811,1.100740166277576,0.8598641887830087
2025-03-05,00:15:00,1.092639984939866,1.0402336921276074,1.1492803541579375
2025-03-05,00:15:01,1.0912820556999372,1.0257488599509115,1.1119918922301109
2025-03-05,00:15:02,1.0770448574282954,0.9355563212562015,0.9893807312398826
2025-03-05,00:15:03,1.0325619236089967,0.9400123690859864,1.0278793366481653
2025-03-05,00:15:04,0.9042955709453141,1.1338517805703643,0.8678624378549207
2025-03-05,00:15:05,1.0280431337545488,1.2207192476734392,1.1645704107131907
2025-03-05,00:15:06,0.9739185904040297,0.8869229458513345,1.0074389934034633
2025-03-05,00:15:07,1.2099637963375467,0.9416691220330968,1.0936257387259218
2025-03-05,00:15:08,1.011426495163467,0.8886107145551216,0.92099388024663
2025-03-05,00:15:09,1.1732204016745786,0.902499307903214,1.1093628407512865
2025-03-05,00:15:10,0.8125092957300144,1.0878672149277362,1.2303913801753747
2025-03-05,00:15:11,1.2123352093903181,1.108171557461084,1.1262555475586336
2025-03-05,00:15:12,1.0257730063165151,0.970502138475119,0.9334332094383334
2025-03-05,00:15:13,1.052343204329831,1.172900066848499,0.9641139698071268
2025-03-05,00:15:14,1.1277526605015766,1.223735064428789,1.2025985941576969
2025-03-05,00:15:15,1.001756719436816,0.8992582111918899,0.9137678732176944
2025-03-05,00:15:16,1.144157004801279,1.113089688167888,1.0062791704607847
2025-03-05,00:15:17,0.9765098009882874,1.1961461035208136,1.1805725491822336
2025-03-05,00:15:18,1.0602642342361153,1.1331059855514438,1.1209034806028622
2025-03-05,00:15:19,1.1383635156884462,1.1076103358415914,0.9926589074446043
2025-03-05,00:15:20,1.1096764294565147,1.0038422019083288,0.8367568259571571
2025-03-05,00:15:21,1.1648203886807549,1.0906720992727352,1.0246927062477338
2025-03-05,00:15:22,0.8396729494902663,1.0459005609318384,1.0384755455664119
2025-03-05,00:15:23,1.1299231717719425,0.9529625016610435,1.2751905526395542
2025-03-05,00:15:24,1.226443920571483,0.8569081139903469,1.280684357706103
2025-03-05,00:15:25,1.0780520318113394,1.0783598206227725,1.031183294748234
2025-03-05,00:15:26,0.9347052235956647,1.063651309429552,1.156101503962953
2025-03-05,00:15:27,1.1199703846153577,0.9368973773474701,0.921752959604181
2025-03-05,00:15:28,0.9352476165042902,0.8864288167874638,1.1483495060174953
2025-03-05,00:15:29,1.044218624031108,1.1297446983922836,1.1146915144494451
2025-03-05,00:15:30,1.1413768123867936,1.1739615092913556,1.02847593656408
2025-03-05,00:15:31,1.0240389084454817,1.1795270780290081,1.0475472551370735
2025-03-05,00:15:32,1.1374187042499777,1.0290957219180283,1.0826059740131377
2025-03-05,00:15:33,1.036319920427897,1.2494499656779916,1.0907629406200026
2025-03-05,00:15:34,1.124455428254099,1.197736688420271,0.9461470977682904
2025-03-05,00:15:35,0.9367530293144122,1.1527180361444505,1.1170081432486365
2025-03-05,00:15:36,1.2110634495597616,1.0416916913374896,1.0609803585075692
2025-03-05,00:15:37,1.2643381821539557,1.212049998438783,1.0334654310357085
2025-03-05,00:15:38,1.166713584528721,1.122679588053323,0.9248153580400896
2025-03-05,00:15:39,1.1827375164508969,0.899537653178773,0.9104622075708886
2025-03-05,00:15:40,1.1271871194867338,0.9182101703990989,1.070421687811866
2025-03-05,00:15:41,1.0791998735674886,1.148216080142559,0.9996118476750553
2025-03-05,00:15:42,0.8986328950277482,0.9257391574479625,1.042882878302812
2025-03-05,00:15:43,0.8909059812016538,1.0904239651778675,1.1340430612585457
2025-03-05,00:15:44,0.9076592033012981,0.999716631083952,1.0809617067168482
2025-03-05,00:15:45,0.9695866920563905,0.9387692182919081,0.9052930312034991
2025-03-05,00:15:46,0.8587540948446095,1.0941352006133296,1.0229935107667305
2025-03-05,00:15:47,0.9741490340601464,1.2351737018413569,1.0606562500927526
2025-03-05,00:15:48,0.9617351862969159,0.9166796735650913,1.2772245921104861
2025-03-05,00:15:49,0.9600116648376371,1.1352099846517811,0.8665933886940387
2025-03-05,00:15:50,0.9247442237379235,0.897220528744527,1.175265611624351
2025-03-05,00:15:51,1.0581856280930104,0.9739615679375566,1.078664626048501
2025-03-05,00:15:52,1.091869486661255,0.9534979282538804,1.0675172231390877
2025-03-05,00:15:53,0.9864760986782002,1.2173394286549455,0.9308231459236357
2025-03-05,00:15:54,1.0929070851999303,0.8591179627099959,1.0872981686326069
2025-03-05,00:15:55,1.0056024666918686,1.1226124843002676,0.9850842668316255
2025-03-05,00:15:56,0.9319417233911885,1.284998437000537,1.2293119808991109
2025-03-05,00:15:57,0.92178482067339,1.1083284608888972,0.9909626150328668
2025-03-05,00:15:58,1.1982589921977882,1.003299222116201,1.0586173813596904
2025-03-05,00:15:59,0.8337107025725137,1.097293378353545,1.1735037554346592
2025-03-05,00:16:00,0.9664821827808676,1.158072477529027,1.0695883519718488
2025-03-05,00:16:01,0.8213592501928106,1.0157115166523345,1.200221006802962
2025-03-05,00:16:02,0.9605500428005462,0.8854216617047351,1.136016927113276
2025-03-05,00:16:03,0.9995972460151247,0.8046952432917526,0.9905785083601627
2025-03-05,00:16:04,1.1941431545678636,0.9948813406457144,0.9976918896476494
2025-03-05,00:16:05,1.1606287216637359,1.108879704596182,1.066682100791275
2025-03-05,00:16:06,0.8512109946895581,1.2035057316805153,1.0511120544556924
2025-03-05,00:16:07,1.1045272748051655,0.9288592745122252,0.8626027787170351
2025-03-05,00:16:08,1.1602405601112542,1.0265290493467423,1.0580979301597637
2025-03-05,00:16:09,1.1825641987808921,1.1262508218447886,0.9668816354033909
2025-03-05,00:16:10,1.194965882813011,0.924956790540879,1.0230011979675926
2025-03-05,00:16:11,0.9247945273678654,1.0216646523508963,0.8731127433204136
2025-03-05,00:16:12,0.9827117464352255,1.0278455474689425,1.0915273668775256
2025-03-05,00:16:13,0.8075707009435414,1.1772725700440194,1.1572494466174597
2025-03-05,00:16:14,0.8742254045381412,0.9903048340105818,0.995826738329868
2025-03-05,00:16:15,1.0979850921352046,1.068089310657849,0.9056760620984199
2025-03-05,00:16:16,0.9519738413007086,0.8821971163008732,1.1197205888124564
2025-03-05,00:16:17,1.0974423239844233,0.9841844462436987,1.1001769276515674
2025-03-05,00:16:18,0.9860213156632481,1.2459683466836444,0.8843070976019036
2025-03-05,00:16:19,1.0983886018713551,0.9007142330786169,1.105257555419804
2025-03-05,00:16:20,0.9415905932199156,0.9101044970134967,1.0385802504955526
2025-03-05,00:16:21,0.9032605301198187,1.0421373509160259,1.2069712194388629
2025-03-05,00:16:22,0.8378838650177445,1.1717837035106191,1.1664433939622485
2025-03-05,00:16:23,1.10840180155454,1.2092030085153072,1.0706683824580785
2025-03-05,00:16:24,0.9347610306277694,1.1185682291383308,1.0728490214413826
2025-03-05,00:16:25,0.9428848944636078,1.1958681886297347,1.0649482160214945
2025-03-05,00:16:26,0.968873150094878,1.1619554488620432,1.1319226295277651
2025-03-05,00:16:27,1.021823758055336,1.063317503303907,1.0714280786953965
2025-03-05,00:16:28,1.137889385270493,1.1422468929732288,1.0262991003177924
2025-03-05,00:16:29,1.0049235807954027,1.0130473465074554,0.8369305320136673
2025-03-05,00:16:30,1.1245422375213148,1.1086421397852038,1.1521863058387425
2025-03-05,00:16:31,1.0479843156340605,0.9917693936895873,1.05217764223278
2025-03-05,00:16:32,0.9000895573201486,1.2180554378439634,0.9287838479077081
2025-03-05,00:16:33,1.1078697209720338,0.8255607989975242,1.1475342775585702
2025-03-05,00:16:34,0.9759764969308689,0.8983995708771702,1.1579782208868192
2025-03-05,00:16:35,0.9705667089176637,1.1126107945931911,1.1512866887994389
2025-03-05,00:16:36,0.969298399691742,0.9001033922970411,0.9298743260061622
2025-03-05,00:16:37,1.2366884937009877,0.9598480331201479,0.9506666277598638
2025-03-05,00:16:38,0.858389719473764,0.9762745544580219,1.244923401828047
2025-03-05,00:16:39,0.9412187225293485,0.8445050657496125,1.1116924048971555
2025-03-04,00:00:00,1.1565015561024887,1.052816813431755,1.0799970638462595
2025-03-04,00:00:01,1.1466452666323859,0.8260248706674111,1.2814159435007124
2025-03-04,00:00:02,1.1748771721099907,0.8969089397539024,0.9120958086963091
2025-03-04,00:00:03,1.1444306323547355,1.2069242975884888,0.9481725630973941
2025-03-04,00:00:04,1.0803497445897705,1.1311022689271963,1.1782276177319018
2025-03-04,00:00:05,1.0546759951043694,0.9556190245185985,0.8503104133566277
2025-03-04,00:00:06,0.9462647628218217,1.182627584051489,0.949467695259332
2025-03-04,00:00:07,1.0629971513155323,1.0839055352614448,0.8587188763144459
2025-03-04,00:00:08,1.1368530285628875,1.2354275393450642,1.2014031450028086
2025-03-04,00:00:09,1.1460464298440534,1.0298583306067515,1.0180893006846603
2025-03-04,00:00:10,1.101832246287283,1.1258176667348938,1.1029525332698027
2025-03-04,00:00:11,0.8699735417009881,1.0598176585574028,1.0008525072186036
2025-03-04,00:00:12,1.157909309877011,1.093647190173865,1.0161401671957901
2025-03-04,00:00:13,1.0549451891531745,1.1571711511705456,0.9591055323066703
2025-03-04,00:00:14,1.1414879232541006,0.9965678889591293,1.1276143410616781
2025-03-04,00:00:15,1.0479315065360753,0.9852208572710485,1.0878064865905126
2025-03-04,00:00:16,1.3004899184729766,0.8879918508939775,1.125545624312488
2025-03-04,00:00:17,1.0577723462250972,1.092251392061785,1.0381136121697143
2025-03-04,00:00:18,0.8848412575083705,1.0097535221808238,1.0463603702843571
2025-03-04,00:00:19,1.0307472844127716,0.922755266837559,1.1882589195326392
2025-03-04,00:00:20,0.8672838867486411,1.1621978769204426,1.272328223192715
2025-03-04,00:00:21,0.9252931563953013,0.9841696235514754,1.1094465586405438
2025-03-04,00:00:22,0.8498513904478255,1.1491943500241493,0.9146566045325647
2025-03-04,00:00:23,0.990455487824206,1.0189250675169061,0.9021605182721975
2025-03-04,00:00:24,1.1003916211846976,0.9698250017682085,1.0683992940430949
2025-03-04,00:00:25,1.0607494542567748,1.0765630647523834,1.1852806947223362
2025-03-04,00:00:26,1.0302703480111148,1.2631333577094965,0.9210103849022232
2025-03-04,00:00:27,0.8918429677670746,1.0358606432703572,0.9600169704198828
2025-03-04,00:00:28,1.1598483780489077,1.1486810702775596,1.2064160575776541
2025-03-04,00:00:29,1.1970645490154064,1.088474616241435,1.07986393545548
2025-03-04,00:00:30,1.1930296409227412,1.2805292853974903,1.1673792783964252
2025-03-04,00:00:31,0.9408523926129333,0.9440404060113139,0.9494234927839748
2025-03-04,00:00:32,0.8721339843455175,0.9821368298568187,1.068370257602133
2025-03-04,00:00:33,0.889992322451937,1.0357292457127334,0.8674764700281177
2025-03-04,00:00:34,0.9318950535162344,0.8483836890183003,1.0196220393562978
2025-03-04,00:00:35,1.134899889451235,1.1708172927916356,1.156637653763787
2025-03-04,00:00:36,0.9598469009050008,1.1213461215564329,0.9893178224358559
2025-03-04,00:00:37,1.1338890385340914,0.8294337639983509,0.9503022487249769
2025-03-04,00:00:38,1.1083397323015773,1.0537193342685223,0.957871982053416
2025-03-04,00:00:39,1.1248939746142874,0.9792901462890421,1.1642818018006578
2025-03-04,00:00:40,1.146199253078942,1.1320573982629356,0.8793139870367215
2025-03-04,00:00:41,1.1179377780969402,0.9048913802476054,1.0528413162890988
2025-03-04,00:00:42,0.8665563942330397,1.0996317875938264,0.9984398418832305
2025-03-04,00:00:43,1.1091014755823176,1.108742288751028,0.8414883237288362
2025-03-04,00:00:44,1.1868620149692235,1.019280196357449,1.084979509612085
2025-03-04,00:00:45,0.8860464947565697,0.9781213465055889,1.1161454166717475
2025-03-04,00:00:46,1.1844342347288424,1.158150795270986,1.0586528032660363
2025-03-04,00:00:47,1.1746758273146147,0.8321261235672245,1.0487778152944773
2025-03-04,00:00:48,1.1830001745917804,0.8902539369122411,1.2232137682109487
2025-03-04,00:00:49,0.9578644386460493,1.1337979114833068,1.064341523439909
2025-03-04,00:00:50,0.8926867717375457,1.1302643472959466,0.965087006065387
2025-03-04,00:00:51,0.9592195458966393,1.1376985667434563,1.0626275053880405
2025-03-04,00:00:52,1.0477459392304602,1.1780192470715696,0.9383392822037373
2025-03-04,00:00:53,1.0962354818157212,1.0892158696952958,0.8506038106463975
2025-03-04,00:00:54,1.0126172610881208,0.9589188936372197,0.9615881610506948
2025-03-04,00:00:55,0.9006678185317888,0.8582123737302011,0.9753751565117884
2025-03-04,00:00:56,0.9373240361525201,0.9086808312824104,1.1597431375807494
2025-03-04,00:00:57,1.2109902801189445,0.9219941024003626,1.0954799077536306
2025-03-04,00:00:58,1.0685285287078716,0.9457856102923945,1.243122867928274
2025-03-04,00:00:59,1.0991210967877785,1.1035705170269634,1.1391000208450133
2025-03-04,00:01:00,0.8219138078975399,0.9351797976695144,1.1178873114312022
2025-03-04,00:01:01,1.0099023657498787,1.20705731476135,0.8684574387182898
2025-03-04,00:01:02,1.048215666455957,1.2077508012158122,1.0071002363391746
2025-03-04,00:01:03,0.9250349781997471,1.176070135843054,1.094197607842822
2025-03-04,00:01:04,1.0674120305700374,0.9472163385349852,0.8444178651183383
2025-03-04,00:01:05,1.17206984976309,1.138696998670526,1.0172337344074043
2025-03-04,00:01:06,1.0937172176811518,1.048569817900739,1.0915947895404103
2025-03-04,00:01:07,0.9469194315246073,0.8701638826643414,0.9823480457623773
2025-03-04,00:01:08,0.9684763334358502,1.0887433631390622,0.8900346719015632
2025-03-04,00:01:09,1.0838100777964104,1.0207049894455855,1.2835644803250779
2025-03-04,00:01:10,0.9355774340402232,1.0972673456890814,0.9264915868945383
2025-03-04,00:01:11,0.9454454995016476,1.0944810165502161,1.0305265682020266
2025-03-04,00:01:12,1.0651132531745546,0.975840372577343,1.0277335818590765
2025-03-04,00:01:13,0.9727315085575294,0.9954684179773556,1.0710826307565036
2025-03-04,00:01:14,1.2093526961651173,1.1189391758441214,0.9456573102057938
2025-03-04,00:01:15,1.0605376277573473,1.0213085022274506,0.9294219990549886
2025-03-04,00:01:16,1.1392163258012642,0.827163163366457,1.2189683701157816
2025-03-04,00:01:17,0.8163868454104577,1.120075248346512,0.834266165274203
2025-03-04,00:01:18,0.9036612165650949,0.8758989206950893,0.9688700098975548
2025-03-04,00:01:19,1.1593474679719253,0.8107840690694689,1.0348532688502836
2025-03-04,00:01:20,1.1564964960609365,0.8952786077548206,1.0324878531912844
2025-03-04,00:01:21,1.110764075338544,1.0754491694070112,1.0776090582106976
2025-03-04,00:01:22,1.1328603582921846,1.1293215422211658,1.2737234676318325
2025-03-04,00:01:23,1.232755092267266,1.2083698022641556,0.9368230104175721
2025-03-04,00:01:24,1.1776450816048658,1.0121479778778497,0.8784957345312734
2025-03-04,00:01:25,0.9023917110429841,1.147845860114819,0.8929689022684316
2025-03-04,00:01:26,1.0219111060908954,0.9978354470578763,1.1999640944475805
2025-03-04,00:01:27,1.003643639925774,1.0355782713154318,0.924840772474317
2025-03-04,00:01:28,1.1378400080396072,1.2007517746221372,1.07787055777805
2025-03-04,00:01:29,1.0869884628559188,0.8851025099343177,0.9709050067213397
2025-03-04,00:01:30,0.9024986454615418,0.9175242241173198,1.1947391520796435
2025-03-04,00:01:31,1.0045943459190583,0.9020574086729946,0.9528591308008834
2025-03-04,00:01:32,0.9959772534492567,0.8655377808131968,0.9703806392690356
2025-03-04,00:01:33,1.1502918887620182,0.952982717948376,1.1024058864015729
2025-03-04,00:01:34,1.18024329109867,1.1602355866697642,0.9143114113685674
2025-03-04,00:01:35,1.049934506358028,0.9211383688943111,1.2610454210599902
2025-03-04,00:01:36,0.9924408724996295,1.1164298557650376,0.9146020087546107
2025-03-04,00:01:37,0.8563933116066703,1.1499645413791886,1.171621113613698
2025-03-04,00:01:38,0.8282395130526282,1.068031865665978,1.129413709747803
2025-03-04,00:01:39,1.1581480458405273,0.9746551044722467,1.1974013680973128
2025-03-04,00:01:40,1.1058850961745037,0.8625378156590808,1.104161801217618
2025-03-04,00:01:41,0.8702903042153696,1.0862420689378198,0.9709134871681366
2025-03-04,00:01:42,1.1652677094129953,1.0375441607728424,1.006306762924451
2025-03-04,00:01:43,0.9670915525485166,0.9400158983593234,1.0595834726096691
2025-03-04,00:01:44,1.0242243175147552,1.1366127715590815,1.173880970893786
2025-03-04,00:01:45,0.8903751465144535,1.0336748870659764,0.8527368473861293
2025-03-04,00:01:46,0.9829483039543657,1.021937301045831,1.0863270086457284
2025-03-04,00:01:47,1.0941420662679124,1.080061397473288,0.8440054315679654
2025-03-04,00:01:48,1.0329216964271335,1.048844303814692,0.8956923606403018
2025-03-04,00:01:49,1.0017287835867188,1.1271877754845092,1.1998880387487274
2025-03-04,00:01:50,1.008828374426242,0.839611016564014,1.121528629871545
2025-03-04,00:01:51,1.0267192558515885,1.1236612668695594,1.1011922994491192
2025-03-04,00:01:52,1.0604652985906784,1.1326030933397284,0.9733845146186247
2025-03-04,00:01:53,0.9964798130188057,0.9849166557955917,1.1203425315502493
2025-03-04,00:01:54,1.270405315028119,0.8262531567598855,0.9610091525204495
2025-03-04,00:01:55,0.8519900136651409,1.0298480228243807,1.0344954131573498
2025-03-04,00:01:56,1.0310280281216702,1.0644321237209182,0.9779077216555633
2025-03-04,00:01:57,1.1680134593655738,1.094976021934769,0.9775571635348405
2025-03-04,00:01:58,0.9462349518713086,0.9830130776354137,0.8293849016314444
2025-03-04,00:01:59,1.0758055364001653,1.2097710406650637,0.9393421263575494
2025-03-04,00:02:00,1.104076043994281,1.2043813471725044,1.1465709836878328
2025-03-04,00:02:01,1.1376551476373857,1.1064985414749784,1.1820830224075978
2025-03-04,00:02:02,1.08874025172718,0.9315310423516012,1.1110977286046064
2025-03-04,00:02:03,1.0066275735582697,0.8014772125741119,1.1252691724966846
2025-03-04,00:02:04,0.933635601590982,0.9040843212002968,1.0375175411136328
2025-03-04,00:02:05,1.1059349359991821,1.1442854323225844,0.9855681928962801
2025-03-04,00:02:06,0.9115571651116566,0.8853769529343448,1.20077276419264
2025-03-04,00:02:07,1.0863920302772454,1.0903914238980028,1.034650480387461
2025-03-04,00:02:08,0.9891435476856747,0.957793355075782,0.9751146534263399
2025-03-04,00:02:09,0.9890157869725452,0.8781298371518657,0.9061584548808548
2025-03-04,00:02:10,1.2215364628245686,0.8271053924310345,1.0006147488546733
2025-03-04,00:02:11,0.8974622809307125,0.9022651602462239,1.0268594084575464
2025-03-04,00:02:12,1.1645959538092974,0.8790056397782766,1.26633037323363
2025-03-04,00:02:13,1.0464349560318336,0.9252845197958006,1.1655031497431712
2025-03-04,00:02:14,0.9844748848112488,1.2216161895728939,1.114727120652364
2025-03-04,00:02:15,1.0924808426275439,1.071397716822543,1.2252389522658382
2025-03-04,00:02:16,0.9108419098983153,1.2144691931605365,1.225800741074018
2025-03-04,00:02:17,0.9284444353921081,1.066760498566864,1.0667495527363893
2025-03-04,00:02:18,1.0822622712523693,1.0441268021736685,0.9609252786165629
2025-03-04,00:02:19,1.1730938209044415,1.002823923420222,1.0116568532071408
2025-03-04,00:02:20,1.1215371528361273,0.9514752255906966,0.8552425611507526
2025-03-04,00:02:21,1.0402695515468923,0.9701483275565153,1.0075618167601057
2025-03-04,00:02:22,0.8397270050149516,1.108772876422892,1.1734509726252043
2025-03-04,00:02:23,1.0646816387328362,1.0311953262882498,1.0355595720241628
2025-03-04,00:02:24,0.9739277439976616,1.0285150156912484,1.1013899104344074
2025-03-04,00:02:25,1.1998176794390392,1.078945046973451,1.149027183827591
2025-03-04,00:02:26,1.0537327544321253,1.0270041884931669,1.0715073748900859
2025-03-04,00:02:27,1.1568981870905142,1.1515427579112565,1.1605274991264651
2025-03-04,00:02:28,1.0129692640309196,0.9694816707619726,0.9611437138826594
2025-03-04,00:02:29,1.005962577752712,0.9489457054887105,1.002152401134716
2025-03-04,00:02:30,1.094564592394636,1.0946187894015853,1.1918264463911785
2025-03-04,00:02:31,1.063776138444146,1.0287348482741958,1.0109212461915977
2025-03-04,00:02:32,1.072602225743128,1.2001234833361554,1.2371355908942103
2025-03-04,00:02:33,0.9739140075293141,1.059469594962037,0.9042365724790713
2025-03-04,00:02:34,1.052918745949331,1.0887254826156756,0.8398541242724745
2025-03-04,00:02:35,1.22394396398083,0.9872093314189628,0.9551013565726627
2025-03-04,00:02:36,1.1317860628915413,0.9408532005306705,1.096407947489225
2025-03-04,00:02:37,1.25888654516783,0.984843054192626,1.1068956085756745
2025-03-04,00:02:38,1.2568705941578717,1.155200737932239,1.0458091361952926
2025-03-04,00:02:39,0.8898602830110004,1.1125254829453377,1.0854755474979534
2025-03-04,00:02:40,0.9197523540661866,0.9969486822853614,1.1450521122414599
2025-03-04,00:02:41,1.1208236761911659,1.0713033609547797,0.9830366643807942
2025-03-04,00:02:42,1.1024168239851437,1.1381304762857827,1.031280753534158
2025-03-04,00:02:43,0.90260603921934,1.0993470308589575,1.0714903929429098
2025-03-04,00:02:44,1.0924169264996426,0.9382754495755067,1.1849228996514107
2025-03-04,00:02:45,1.1921825286427203,1.1807735650005793,0.9900660570661729
2025-03-04,00:02:46,1.0721966329474166,1.0927284503798804,1.1018598871560314
2025-03-04,00:02:47,1.111870427120264,1.1302599807529201,0.9776188121144737
2025-03-04,00:02:48,1.102834062591765,0.9827332052760728,0.9846509161854545
2025-03-04,00:02:49,1.0423032692097862,0.897861367291544,1.0477374996897864
2025-03-04,00:02:50,1.094894019936048,1.029799270043275,1.1205261164341405
2025-03-04,00:02:51,1.1549735508555208,1.1926413418735882,1.1638319858715076
2025-03-04,00:02:52,0.8743219025069201,0.9012254901288675,0.9343750358046742
2025-03-04,00:02:53,1.229921125508765,1.024293787240131,1.0750478597596527
2025-03-04,00:02:54,1.1599503475958992,1.0146781160811789,1.025447805558128
2025-03-04,00:02:55,1.1616069738727575,1.0948515629990787,0.9566197734552371
2025-03-04,00:02:56,0.8417607521521819,0.9511654440047098,1.0910083061352909
2025-03-04,00:02:57,1.1797765915917502,1.1137640352894,1.0701415673904575
2025-03-04,00:02:58,0.9520496390681283,0.9240063222345611,1.0314484259675532
2025-03-04,00:02:59,1.1709250788512704,1.0618310922538965,1.1440595883890412
2025-03-04,00:03:00,0.8952155174471869,0.8696819325171896,0.9561193193681101
2025-03-04,00:03:01,0.9894231990299037,1.0775442139483968,1.0976785168611738
2025-03-04,00:03:02,1.0943068895568135,1.1300081570910643,1.2011880631580132
2025-03-04,00:03:03,1.2104841582146855,0.9191111773065708,0.8757264355557429
2025-03-04,00:03:04,1.1405733736047294,0.8768522422373841,0.9204830809202691
2025-03-04,00:03:05,0.9119832619777517,1.0921309860915223,0.9543029398843754
2025-03-04,00:03:06,1.012908541265651,1.0646053680216225,0.9039226731286042
2025-03-04,00:03:07,1.1064521452886478,1.0648900171812283,1.079338758242279
2025-03-04,00:03:08,0.9695369032640808,1.246697788475162,0.9891698089683972
2025-03-04,00:03:09,1.137519260933814,0.940191244686843,1.0690119749404194
2025-03-04,00:03:10,1.1707241729519806,1.178564709752079,1.019396938841042
2025-03-04,00:03:11,1.1226978525350175,1.1506621977216691,0.9288843994824548
2025-03-04,00:03:12,0.8195470320688911,1.0659136171615382,0.9963498997359316
2025-03-04,00:03:13,1.0812989669287518,1.087997482853573,1.1777974347521336
2025-03-04,00:03:14,1.0077266847879864,1.129460486543766,1.149374121704962
2025-03-04,00:03:15,1.1747780012924647,0.9918919301220454,0.9906187342962237
2025-03-04,00:03:16,1.1251949541759427,0.9454601369244464,1.2046449666267913
2025-03-04,00:03:17,0.8321621155180693,0.9607208565911171,0.9996727764544278
2025-03-04,00:03:18,0.9890294638076796,1.1076920947933477,1.1641793154453295
2025-03-04,00:03:19,1.1231239595541427,1.1929801409973044,1.2075058524001505
2025-03-04,00:03:20,0.8185267178136774,1.0466684289967898,1.0690577898635356
2025-03-04,00:03:21,1.0963835664320196,0.9154488313715822,1.0347083630093759
2025-03-04,00:03:22,1.0909906452004614,0.9590681751781758,1.0909633498249227
2025-03-04,00:03:23,1.0249783273397717,1.0424811054021625,1.1246965034937366
2025-03-04,00:03:24,0.9051024225874165,0.891081013243026,1.0130435577496135
2025-03-04,00:03:25,1.0642713778575157,1.1460267628498384,1.147675588070554
2025-03-04,00:03:26,0.9565231827954054,1.0783622001498911,1.153102058348839
2025-03-04,00:03:27,0.8896513806400614,1.0703082970461932,1.0084599664697467
2025-03-04,00:03:28,1.1545337935055664,1.0451713663864588,0.9988559651979392
2025-03-04,00:03:29,0.9170441743538905,1.0089496758653687,1.0122423560888059
2025-03-04,00:03:30,0.9252252893626696,1.026281967131006,0.8711848992622975
2025-03-04,00:03:31,1.0831385032803247,0.9878081023233796,0.8664862591055971
2025-03-04,00:03:32,1.264774304527458,0.9310667253623507,1.1544678445076262
2025-03-04,00:03:33,1.1738603163759154,1.2215592203813448,0.9918842895825863
2025-03-04,00:03:34,0.9712680415918982,1.0472912456186068,0.9816677302987997
2025-03-04,00:03:35,1.0209001359731291,0.8769913041825327,1.1515728145642201
2025-03-04,00:03:36,0.9716989464744233,0.816412300224553,1.0271579169608969
2025-03-04,00:03:37,1.0131585822862732,0.9256233426901127,0.989983535599199
2025-03-04,00:03:38,1.210584080527885,1.0461791478372136,0.9807110807388718
2025-03-04,00:03:39,0.9587087285843903,0.9863877988749326,0.9416680428734951
2025-03-04,00:03:40,1.0879429404247456,0.8980395486827666,1.203725549092702
2025-03-04,00:03:41,1.0329121933843979,1.1939188921513408,1.0703881916030469
2025-03-04,00:03:42,0.902014249486865,1.1599267226514314,0.9031133252752442
2025-03-04,00:03:43,1.0007892697682146,1.0727212165610396,1.0722937115037543
2025-03-04,00:03:44,0.7829845747254156,0.8977940205720092,1.147103691398317
2025-03-04,00:03:45,1.0326123764310784,0.9217277211734698,0.9411356870544061
2025-03-04,00:03:46,0.9498483963198986,1.0022647808972271,0.9292068282931759
2025-03-04,00:03:47,0.9033572727771938,0.9371176358022918,1.0941134022241332
2025-03-04,00:03:48,0.9354518048339449,1.0577052950572865,1.0391210767645451
2025-03-04,00:03:49,1.1042941394818073,0.9111115246919697,1.1376470151059828
2025-03-04,00:03:50,1.1267182964331115,0.9213842869928278,1.075080975826522
2025-03-04,00:03:51,1.1335916410332965,1.173299569120895,0.9560402163369631
2025-03-04,00:03:52,1.0325656169482142,1.0296231500618307,1.276230896622431
2025-03-04,00:03:53,0.8665038356961694,1.17070710165052,0.8075287187598617
2025-03-04,00:03:54,0.8094351361831423,0.9181091992440407,1.0500302703212343
2025-03-04,00:03:55,1.0891715084885165,0.903181362392388,0.998050868870874
2025-03-04,00:03:56,1.1308931108264406,0.9235185383489368,0.9192987406976876
2025-03-04,00:03:57,1.0914344857413956,1.22486733580844,0.9905753699708538
2025-03-04,00:03:58,1.1811048245969418,1.2220431640111988,1.2325373418471939
2025-03-04,00:03:59,1.0169653737411568,0.9522450703932149,1.0986032114586504
2025-03-04,00:04:00,1.179392126604206,0.8103180936227631,1.0149093666428504
2025-03-04,00:04:01,1.1594410271112963,0.8215283940674742,1.0024937285858646
2025-03-04,00:04:02,1.118942166148921,0.964346549838779,1.1657218586282037
2025-03-04,00:04:03,1.1845488850387982,0.9552671986157335,1.1983123967909548
2025-03-04,00:04:04,1.0460607113669924,1.2263384236411632,1.0023190197623695
2025-03-04,00:04:05,1.1896720815567163,1.1787392580381006,0.8682248482751802
2025-03-04,00:04:06,1.044171748702366,0.9544040359678121,1.2255979153161156
2025-03-04,00:04:07,0.9319851523664386,1.1981754997722138,0.8417557071103172
2025-03-04,00:04:08,0.9479159127432076,1.159097827634954,0.983735947884215
2025-03-04,00:04:09,1.0219330224933167,1.132306717609315,1.0226328339122088
2025-03-04,00:04:10,0.9961214480581737,1.08955415006865,0.8331794629783388
2025-03-04,00:04:11,1.1992955675498898,0.92069534035677,1.0219033497707806
2025-03-04,00:04:12,1.1495901851476122,0.9770849074745679,1.062638918029377
2025-03-04,00:04:13,1.1711970579247348,1.0751313669334435,1.0756885038732331
2025-03-04,00:04:14,1.2218762063276085,0.8712545799507156,1.0145800050251643
2025-03-04,00:04:15,1.1467055815159661,0.9862481816852581,1.0095020056220476
2025-03-04,00:04:16,0.9337523187332575,0.8922413522180115,1.070647634184787
2025-03-04,00:04:17,0.8636193492224129,1.0562520468328804,1.1124845798169192
2025-03-04,00:04:18,0.9881289206322911,0.9286103291119194,0.8666525864277637
2025-03-04,00:04:19,0.8887022777436644,1.1664983078884108,1.1680570540144684
2025-03-04,00:04:20,0.9904534693137979,1.0605823038549393,1.0782041830961033
2025-03-04,00:04:21,1.0433398376309797,0.8687248967184632,1.1028576468171574
2025-03-04,00:04:22,1.0219872089283295,1.049098783753717,0.9522705247988135
2025-03-04,00:04:23,1.053366181053471,1.0804775370609867,1.0061826852650195
2025-03-04,00:04:24,0.9586896324575955,1.0118187759309092,0.9384199750931492
2025-03-04,00:04:25,1.1694822131706508,1.092258989309289,0.939314843974793
2025-03-04,00:04:26,1.140139901349101,1.0230832551306006,0.928406703450405
2025-03-04,00:04:27,1.0964666067572184,1.0297897607130628,0.8035620037548521
2025-03-04,00:04:28,1.140049172118104,0.9686837713149223,0.9987086668977422
2025-03-04,00:04:29,0.964915718106745,1.0413228843267293,1.2161931451875256
2025-03-04,00:04:30,0.8865903067551968,1.029856563608039,0.8727728639020625
2025-03-04,00:04:31,0.9694732956791151,1.0060493222115414,0.9632349647440351
2025-03-04,00:04:32,0.9280205404608536,1.0205801985076723,0.9952356800908058
2025-03-04,00:04:33,0.8218050853902111,1.1952384119106854,0.8965476591304634
2025-03-04,00:04:34,0.9577375734739594,1.1015414648507624,0.8461834240005117
2025-03-04,00:04:35,1.063160436838914,1.1304245580978627,1.2306485283781954
2025-03-04,00:04:36,0.9735403501229654,1.0742714987410187,1.0526785001016195
2025-03-04,00:04:37,1.034628865307164,0.9958887071998359,0.9228291375948309
2025-03-04,00:04:38,0.8734949300724307,1.046756972919297,1.1064239076471023
2025-03-04,00:04:39,0.989639638277349,1.1614316827383373,0.8957580650186857
2025-03-04,00:04:40,1.074992337308618,1.2078939704447877,1.0777277157557557
2025-03-04,00:04:41,1.2049632367790122,1.1116712986981345,1.126237364634604
2025-03-04,00:04:42,1.1845137228355946,1.0513949043856237,0.899558527640705
2025-03-04,00:04:43,1.1247602758484954,0.9049966315681148,0.8161113983744844
2025-03-04,00:04:44,1.239032078745728,1.0216435667278205,0.9494592141657144
2025-03-04,00:04:45,0.9147353964632081,0.9350829249554986,0.9006931009907297
2025-03-04,00:04:46,0.9884610583515259,1.1234237383254275,1.1227888937102732
2025-03-04,00:04:47,0.85217686288855,0.865212483586675,1.1174341767030505
2025-03-04,00:04:48,1.0096339672728964,0.9734509324380756,1.0316203790719307
2025-03-04,00:04:49,1.0074958668939114,1.0438141361481161,1.0620250913812135
2025-03-04,00:04:50,1.243860255293385,1.125511724737214,1.1549562991250433
2025-03-04,00:04:51,1.0001906521324155,1.1157350576070575,0.9718303983862553
2025-03-04,00:04:52,1.0071566315869944,0.9809018948345725,0.9277486139735699
2025-03-04,00:04:53,1.0374946054749077,1.1517692656509433,1.0619365959292237
2025-03-04,00:04:54,0.8488303338569502,1.18232682963615,1.0587592524637222
2025-03-04,00:04:55,1.1591541954416407,1.09305330357244,1.1614205568937217
2025-03-04,00:04:56,1.0813569666198273,1.0419595195683462,1.0383824075612356
2025-03-04,00:04:57,0.9488471181347852,1.0663467035385767,1.0616767352000556
2025-03-04,00:04:58,1.1063842180297137,0.8818748760289216,1.0661980675551608
2025-03-04,00:04:59,1.051794029121953,0.9437623350334041,1.0135373861156038
2025-03-04,00:05:00,1.190782561235619,0.9210874079943306,0.927759615643731
2025-03-04,00:05:01,0.8691376369579606,0.9986743847572346,0.9610679121849344
2025-03-04,00:05:02,0.863892585280561,1.0639290361645442,1.0634233663453123
2025-03-04,00:05:03,0.8232408326106337,1.1176611392540472,1.054831286472096
2025-03-04,00:05:04,1.0423510182080142,1.1009534545502777,1.115083825452247
2025-03-04,00:05:05,0.9510849530843511,1.0181053948298842,1.1473719299590797
2025-03-04,00:05:06,1.0657082212134246,1.0621537757558266,1.1749036997447124
2025-03-04,00:05:07,1.049823990374594,0.9562790848566052,0.8780150764634207
2025-03-04,00:05:08,1.0866956035072945,1.0847876329181516,1.074586027760147
2025-03-04,00:05:09,1.1598952367295434,1.0303626434735662,0.9191146985305939
2025-03-04,00:05:10,0.9411557616285924,1.25684097536608,0.8811494901411577
2025-03-04,00:05:11,0.9734498157420798,0.9109254699011429,1.147100161441863
2025-03-04,00:05:12,0.9418485915891376,1.1074312514285434,1.0057033300599492
2025-03-04,00:05:13,1.1045801620363491,1.0291523136060317,1.2348748235490752
2025-03-04,00:05:14,0.9918273824530527,1.027753404292396,0.9927239464719831
2025-03-04,00:05:15,0.9296328169938114,1.1731291491947167,1.0619214570559796
2025-03-04,00:05:16,0.9452430868488568,0.9651304301224601,0.9099201587341417
2025-03-04,00:05:17,0.9764006269728336,1.1479512842260433,0.8946445116013582
2025-03-04,00:05:18,1.0703673937995377,0.9024224089446954,0.8875942055982248
2025-03-04,00:05:19,0.789474685442405,0.7983083205649408,0.940951954817074
2025-03-04,00:05:20,1.2336371655668827,0.8813266573598743,1.3261913927883704
2025-03-04,00:05:21,0.9612503223650374,1.1862435665797206,0.995239805377042
2025-03-04,00:05:22,1.055249647741231,0.9942300895374907,0.9852914780790115
2025-03-04,00:05:23,1.042139540784408,1.2258457705358672,0.9261157910917548
2025-03-04,00:05:24,0.8046251963185574,0.9936517849615213,0.8009605998497002
2025-03-04,00:05:25,0.9708273141840021,0.9755900854806944,1.0637756319948004
2025-03-04,00:05:26,0.9679937326038628,1.0570212482763215,0.9709465533317574
2025-03-04,00:05:27,0.8776441311238917,0.9894337697400848,0.8828200554716976
2025-03-04,00:05:28,1.2365278034981464,1.1285829238481535,1.1051875625098742
2025-03-04,00:05:29,0.9129368465019357,0.8612739568771739,0.9988587261837455
2025-03-04,00:05:30,0.83858482248434,1.0708275989976817,1.0928359628385944
2025-03-04,00:05:31,0.9271564871470664,0.9072710689196134,1.031368287922054
2025-03-04,00:05:32,1.208914815829917,1.1245381605511267,1.0194163955404643
2025-03-04,00:05:33,0.9894458869920973,0.9590779620204022,1.0553976281946829
2025-03-04,00:05:34,0.8573099165871746,0.9919753773808252,0.8759967019832323
2025-03-04,00:05:35,0.9984048384243515,1.2096668667577577,0.8634565038960734
2025-03-04,00:05:36,0.9523084300678673,1.011066811178889,1.0634613910806983
2025-03-04,00:05:37,0.8680604075749163,0.9972913471550967,0.9887053267480674
2025-03-04,00:05:38,1.0341696629241934,1.0857423840799603,1.0749043853766476
2025-03-04,00:05:39,1.175866786862613,1.0376550087832748,0.9726471336259823
2025-03-04,00:05:40,0.9346828064493226,1.10385855253561,1.125298680122328
2025-03-04,00:05:41,1.0277225906681742,1.1246479921869035,0.9656658328807234
2025-03-04,00:05:42,1.1193749705933727,1.3025642405449722,1.0891806174818388
2025-03-04,00:05:43,1.1387182046847846,0.95329631731179,1.1206398845890608
2025-03-04,00:05:44,1.2022119072122384,0.8370782162866961,0.85064152842879
2025-03-04,00:05:45,0.9686979090032768,1.0118152621757186,1.1657225107782974
2025-03-04,00:05:46,1.1194510234155635,1.149941434468666,1.0564429952283514
2025-03-04,00:05:47,1.057557455520056,1.174307180508944,0.9442540979514332
2025-03-04,00:05:48,1.0122848427719813,0.9881010165556189,0.8753117885369793
2025-03-04,00:05:49,1.0494389545127885,0.8936986675784695,0.9961416286238608
2025-03-04,00:05:50,1.0713085628650898,1.0190523447746742,0.9183478612384868
2025-03-04,00:05:51,1.1170803034325145,0.9338207183351599,0.9903710175531325
2025-03-04,00:05:52,1.0600076823843976,1.0434353788687991,1.01344975053941
2025-03-04,00:05:53,1.0200975770120666,0.8308134464898744,0.8059357242145865
2025-03-04,00:05:54,1.2175991934598396,1.1669553688880576,1.0188039726553308
2025-03-04,00:05:55,1.1914323650662375,1.1364544429914831,0.892277221321321
2025-03-04,00:05:56,1.168456118242693,1.1781764668890615,0.9053701586716003
2025-03-04,00:05:57,1.0723738573643178,1.1327156211423035,1.0881291233043469
2025-03-04,00:05:58,1.2200785454943763,0.8754546463598805,0.9239123649292081
2025-03-04,00:05:59,0.9923678244164755,1.0909212045846004,0.8818085841755766
2025-03-04,00:06:00,0.871206645486826,0.964355845494067,0.9336137972889174
2025-03-04,00:06:01,0.8900072089722846,0.9398791756840253,0.9713872983931242
2025-03-04,00:06:02,0.8564663114183204,0.9239507492219756,1.208512922483001
2025-03-04,00:06:03,1.020540799692238,1.118550550044776,1.105692929096733
2025-03-04,00:06:04,1.0543722034855398,0.765819221730604,1.1388050608002775
2025-03-04,00:06:05,0.9851901420651064,0.9178867994065938,1.0584320721959357
2025-03-04,00:06:06,0.8785406023374777,1.2534369190759114,0.9221804347450171
2025-03-04,00:06:07,1.1438671785326853,1.0511765656818888,1.1170420626001767
2025-03-04,00:06:08,1.1329688905892221,1.0049734639942591,1.0129993466025142
2025-03-04,00:06:09,0.9348183466605392,0.8742699697553341,1.0853142613578528
2025-03-04,00:06:10,0.854298099470271,0.9527645108859816,1.0937795313890017
2025-03-04,00:06:11,1.1387484948150142,1.1073320112571987,0.926507254944381
2025-03-04,00:06:12,0.983267228461097,1.0456145854769796,0.9595354505494778
2025-03-04,00:06:13,0.9722045909101995,1.1220618946626237,1.2193270546858421
2025-03-04,00:06:14,0.9743120653993871,1.0294774401939557,1.208550875165414
2025-03-04,00:06:15,1.1128196675756656,0.8602070903237279,1.072566596892291
2025-03-04,00:06:16,1.0730291715500653,1.1598893898324478,0.9496646184584466
2025-03-04,00:06:17,0.9929870164513284,0.930967407769712,0.8867993388473437
2025-03-04,00:06:18,1.1183887225218236,1.1342973572153499,0.8761463786268189
2025-03-04,00:06:19,1.0213178305201664,1.019028499030185,1.0105532337172738
2025-03-04,00:06:20,0.9078879083328533,0.7523571447569695,1.1632051925928586
2025-03-04,00:06:21,1.1620421706170208,0.9700914848496219,1.0615074564950684
2025-03-04,00:06:22,0.8862840110954612,1.0583667200948867,1.135572570868733
2025-03-04,00:06:23,0.944534399404027,0.9593936237238003,0.8546193200808987
2025-03-04,00:06:24,0.9514234876637191,1.0719847881995783,0.7445001986675347
2025-03-04,00:06:25,1.0712566113772337,0.9108880472596725,1.189987601691013
2025-03-04,00:06:26,1.0923437142677395,1.1063282583609748,0.9254424926133862
2025-03-04,00:06:27,1.068524340176123,1.0903165737474683,0.939401023985721
2025-03-04,00:06:28,1.1261810813955844,1.0016926838508582,1.0854540330334481
2025-03-04,00:06:29,0.9167883347424209,1.0535446342788686,0.9442987307254093
2025-03-04,00:06:30,0.9397092999514784,1.1673773566991759,1.037403911808499
2025-03-04,00:06:31,0.9897974864780361,1.1378585944006099,1.1305415557515053
2025-03-04,00:06:32,0.9979711888021912,0.9591910564350872,1.1165598298314923
2025-03-04,00:06:33,1.1296740742298537,0.9308961990517036,0.9095513003993243
2025-03-04,00:06:34,1.1614372560007862,0.9309441514650144,0.8628658522443552
2025-03-04,00:06:35,0.8531081889399513,0.8833775151415049,1.1145864393540021
2025-03-04,00:06:36,1.0418282581492648,1.0681929689205543,1.0802602680063498
2025-03-04,00:06:37,1.1097827523255157,1.0306404489307284,1.1828639640891627
2025-03-04,00:06:38,1.02073096113169,1.0193510111637945,0.8883453329389025
2025-03-04,00:06:39,1.0909206190969638,1.2261448404306914,1.2056606384791129
2025-03-04,00:06:40,0.8922160608148006,1.0802112117091893,0.8932212806663332
2025-03-04,00:06:41,1.13463832957817,1.2204632072823942,0.9548245774074888
2025-03-04,00:06:42,0.979489563517653,1.225230108297157,0.9972112998626771
2025-03-04,00:06:43,0.7706185314359426,1.0474175164346111,0.9448242055742485
2025-03-04,00:06:44,0.9080320270380805,1.12222812190287,0.8944890408286106
2025-03-04,00:06:45,0.9906400465616455,0.8917906745790001,0.9964250769304908
2025-03-04,00:06:46,1.1372826492417556,0.9789258281907195,1.2448451133412313
2025-03-04,00:06:47,1.1665583259151118,0.9979906144272013,1.124665827911425
2025-03-04,00:06:48,0.8424826440409773,0.955864949673427,0.8981072558480109
2025-03-04,00:06:49,1.063870221950236,0.9787373486450852,0.862084852010248
2025-03-04,00:06:50,1.0785218183369432,1.2370837951826366,1.0800731836613582
2025-03-04,00:06:51,0.892642711993777,1.0599993807564199,1.182774270124645
2025-03-04,00:06:52,0.8758750789435789,1.0743267132303218,0.8954342897608452
2025-03-04,00:06:53,1.0875692367489451,0.9066477491446475,1.0277839399492528
2025-03-04,00:06:54,0.9018649933661651,0.9579057468229725,0.9025089462908633
2025-03-04,00:06:55,1.1762624335174137,0.9267089525312036,1.11057709363723
2025-03-04,00:06:56,0.919798824761321,1.099946072739681,0.8886678725687078
2025-03-04,00:06:57,1.1129430005452128,1.2455716343592511,1.2520380017057133
2025-03-04,00:06:58,0.8088783354366269,1.0675709487855518,1.0465979994967984
2025-03-04,00:06:59,0.9462601977926762,1.2102542862360597,0.931555613245688
2025-03-04,00:07:00,0.8932107148412913,1.097785892111976,1.1750378625968207
2025-03-04,00:07:01,1.2108114719265464,0.8078380586896704,1.01229412141663
2025-03-04,00:07:02,1.0509883689483908,1.0674545665672845,1.1474372659816034
2025-03-04,00:07:03,0.8757419206665106,1.0141946117593914,1.0373648844191206
2025-03-04,00:07:04,0.9137061988726976,0.91958569733616,0.9128704229261653
2025-03-04,00:07:05,1.132690735884571,0.9739388458687062,1.1391412239592538
2025-03-04,00:07:06,1.167675733756,1.0945713243666846,0.932984832821043
2025-03-04,00:07:07,1.073113119164195,1.1542125483603645,0.9415503764175395
2025-03-04,00:07:08,1.1819415060019896,0.8614607964571008,1.1505419274007673
2025-03-04,00:07:09,1.004394668508792,0.9760674390573985,1.0446356501685878
2025-03-04,00:07:10,0.8089057391437504,1.0941581160828624,1.1781331529958088
2025-03-04,00:07:11,1.02946367165238,0.9103667530128533,1.2371066786111207
2025-03-04,00:07:12,0.8129689485989724,1.1041297685044311,0.9347395194699724
2025-03-04,00:07:13,1.0242219388186167,0.9733801234283462,1.1764933167788065
2025-03-04,00:07:14,1.0881155537443603,0.9904683853316191,1.0532205952283877
2025-03-04,00:07:15,1.126887430547333,1.1460991194332057,0.7626903402898217
2025-03-04,00:07:16,1.149285013349746,1.1567971568951083,1.2191509469545248
2025-03-04,00:07:17,0.8763870515347645,1.0866442724849108,1.0964464218184162
2025-03-04,00:07:18,0.9815374664833286,0.9283750508864271,1.1646640523795808
2025-03-04,00:07:19,0.7941567381426446,1.0211192691279407,0.9426023564213102
2025-03-04,00:07:20,1.0653828626208708,1.0970477958694345,0.9533781599402887
2025-03-04,00:07:21,1.1201636441955083,1.08885256482343,1.1182738903041227
2025-03-04,00:07:22,0.8846336025208766,0.9183161169604854,1.071338860842599
2025-03-04,00:07:23,0.9904709416164924,1.1480450416304318,0.8072115351670668
2025-03-04,00:07:24,1.162307579122437,1.0334587259496804,1.1110197167209275
2025-03-04,00:07:25,0.9597514421343573,1.1841184106943388,0.9941936388651024
2025-03-04,00:07:26,1.0595112260785993,1.0632596045857183,0.9137636462165885
2025-03-04,00:07:27,0.8575702085585452,1.120873890615061,1.1151626461223059
2025-03-04,00:07:28,0.8980707937871182,0.9488150552272849,0.9920391102809606
2025-03-04,00:07:29,1.081569232769709,1.1216800979074213,1.1040467478494846
2025-03-04,00:07:30,1.0778290322565693,1.239129587340109,0.8995367773278188
2025-03-04,00:07:31,0.9732491845600219,0.9874552699012192,0.883713425281746
2025-03-04,00:07:32,1.086936625969381,0.8110803745196764,0.9620764447312153
2025-03-04,00:07:33,0.9533653607746894,0.9176528699848837,0.9474400682158585
2025-03-04,00:07:34,0.8103180389005178,1.015725312048833,0.9931456469478042
2025-03-04,00:07:35,1.1184008397405023,0.8744170397756555,1.075841456069651
2025-03-04,00:07:36,0.9555778500036637,1.2037091603070071,0.8790373787474147
2025-03-04,00:07:37,1.0961882707244694,0.9566531233984639,1.1428007664913356
2025-03-04,00:07:38,1.1353327498785786,1.1233173152819156,0.9453983654077003
2025-03-04,00:07:39,0.9481371742926752,1.0181053946765497,1.0641324288920935
2025-03-04,00:07:40,1.0213910972847695,0.8574681137400123,1.0639813890296776
2025-03-04,00:07:41,0.9433022435625555,0.9885725246939955,1.0924650906563171
2025-03-04,00:07:42,1.082437000949361,1.0552047887389637,1.01517591826272
2025-03-04,00:07:43,1.0977464847479308,0.9392298457024788,1.0339645962022919
2025-03-04,00:07:44,1.0737315793276836,1.081275560741743,1.1306632929915332
2025-03-04,00:07:45,1.0342058548959878,1.1740872229183918,1.1562410023685783
2025-03-04,00:07:46,1.052230148352525,1.0146296363824974,0.8814218612088253
2025-03-04,00:07:47,0.9758684431271096,1.0479651029028734,0.9634860353078796
2025-03-04,00:07:48,0.9023794733051831,1.0762749687299604,0.8939989635535877
2025-03-04,00:07:49,1.1928800188448672,0.9785455987528219,1.155074343194912
2025-03-04,00:07:50,1.0732404257376973,0.9306026442906141,1.0148493172097854
2025-03-04,00:07:51,0.9500865318297643,1.2225418562497772,1.1598818042305172
2025-03-04,00:07:52,1.151043195731283,1.064817602911224,0.8890968349187061
2025-03-04,00:07:53,0.9268291808723695,0.9839567301300347,0.9476875186992684
2025-03-04,00:07:54,1.0226736013806756,0.9752097917299897,1.0538503079569865
2025-03-04,00:07:55,1.0954713468908859,1.0954101612200244,1.1510461124392433
2025-03-04,00:07:56,1.0777698574394308,1.2512931537569483,1.048477729004036
2025-03-04,00:07:57,0.9667585520381607,1.1199427102526442,0.9462743574272249
2025-03-04,00:07:58,1.0576336274284666,1.0719443979495822,0.9972846681228221
2025-03-04,00:07:59,1.0175191698206343,0.8462580597967969,0.9006469568431463
2025-03-04,00:08:00,1.0435342905530358,0.8634372137047323,0.9942911337028705
2025-03-04,00:08:01,1.1012804294879204,0.9249611849908554,1.0892484074583781
2025-03-04,00:08:02,1.1260371807373306,1.140513018414868,1.1920558481316983
2025-03-04,00:08:03,1.1513643893288503,1.2900968258741603,0.9649198541355389
2025-03-04,00:08:04,1.2409863239218653,1.1767401456662487,1.2825303244061594
2025-03-04,00:08:05,1.1400129361935742,0.9543076272806919,1.2374097202788512
2025-03-04,00:08:06,1.0899852459224748,0.9132773038442334,1.0088168709796048
2025-03-04,00:08:07,1.0050405181247535,1.0019993754658818,0.9887769438127693
2025-03-04,00:08:08,1.129942366263487,1.0730214326669631,1.2081294462342442
2025-03-04,00:08:09,0.8917813339788678,1.1693617774238558,0.9392228656953303
2025-03-04,00:08:10,1.2264721021081761,0.9521824201186978,0.9934142719768246
2025-03-04,00:08:11,1.1515077318784632,1.0226968209385352,1.073074233342398
2025-03-04,00:08:12,0.834552968180296,1.1309774494008737,1.0595724875264627
2025-03-04,00:08:13,1.022653327375719,1.038701661266039,0.8974662987372788
2025-03-04,00:08:14,0.9624817094588903,1.0726664235262076,1.2409937402404814
2025-03-04,00:08:15,0.827399495593442,1.01624124572798,1.176654456535619
2025-03-04,00:08:16,1.066614334523487,0.9520783090119956,1.0385919478605259
2025-03-04,00:08:17,1.116196834442642,0.9287900112902493,1.0024568971311147
2025-03-04,00:08:18,1.0781466432508982,0.9463952663088468,1.068543647912764
2025-03-04,00:08:19,0.8754811023680789,1.1297701984261808,1.0308888496904474
2025-03-04,00:08:20,0.8639922401399156,1.1375397455787881,1.0692947134258963
2025-03-04,00:08:21,1.0965945995031157,1.0345459428750097,1.0445260642675542
2025-03-04,00:08:22,1.0935691299738095,0.9197378576676504,1.1436039420230562
2025-03-04,00:08:23,1.061080840523172,0.977781202595198,0.9566325371018589
2025-03-04,00:08:24,1.011301347814799,1.0957748168145547,1.2100822999812262
2025-03-04,00:08:25,1.0002664323927781,1.076526212970252,0.9010198912747811
2025-03-04,00:08:26,0.9326182578046485,1.1633937902101188,0.7694925742497792
2025-03-04,00:08:27,1.1798968749864178,1.1431013417040001,1.1318695309598805
2025-03-04,00:08:28,1.1793265027164928,1.0730860276288163,1.0815790894908837
2025-03-04,00:08:29,0.9801170432092432,1.1122948525614025,1.0854609304765201
2025-03-04,00:08:30,1.151301842950358,0.9587109177914162,1.0938913531634205
2025-03-04,00:08:31,0.9225348357973748,0.885653699515082,0.9646522073388765
2025-03-04,00:08:32,0.9262415592381597,0.9308304708749329,1.1568495672295422
2025-03-04,00:08:33,0.8964701381807497,0.9569311581698942,1.2253428304583094
2025-03-04,00:08:34,0.9187273398093108,1.0130148101682819,1.1888249107416877
2025-03-04,00:08:35,1.1202890762641557,1.0920241722233128,0.9846820661421176
2025-03-04,00:08:36,1.1888186876564781,1.204078382459049,0.9458738294494153
2025-03-04,00:08:37,1.0447974909426265,1.1312504975080009,0.9639652277142551
2025-03-04,00:08:38,1.096212444812023,0.9508674636453874,1.1446467842381376
2025-03-04,00:08:39,0.826670238625842,0.9453473730928712,1.0377496764906808
2025-03-04,00:08:40,1.101700611672209,0.9861784634385071,1.0875648577474817
2025-03-04,00:08:41,1.129307251448597,1.0049726366265659,1.1755869505335046
2025-03-04,00:08:42,1.1017441026120092,0.8545952833479178,1.1540058728048697
2025-03-04,00:08:43,1.1646749113335133,1.1512498724661164,1.0469865666503184
2025-03-04,00:08:44,1.1667968369978672,1.1828860440924824,0.9767293118762372
2025-03-04,00:08:45,0.9938417865677454,0.9901676055632826,1.0586761305040642
2025-03-04,00:08:46,0.9169387047871961,1.1513937177398563,1.0156328881162386
2025-03-04,00:08:47,1.13613542904844,0.894950847838846,0.9550052350162332
2025-03-04,00:08:48,1.150409152922522,0.9844989017972438,1.0581023289755294
2025-03-04,00:08:49,1.0611310057514791,0.8555309466002553,1.0143215596219284
2025-03-04,00:08:50,0.8670778642324108,1.0173791013781592,0.91267803656937
2025-03-04,00:08:51,1.0440411499631312,0.9521827724914924,1.113841638127353
2025-03-04,00:08:52,1.0216482961777684,0.8971933965289343,1.1525317463928413
2025-03-04,00:08:53,1.0372385902688688,1.0467867703543137,1.1068902912346485
2025-03-04,00:08:54,1.1449175385125099,0.9857271184297195,1.0375506676522304
2025-03-04,00:08:55,1.1275429966490114,1.027665328725184,1.163833474562641
2025-03-04,00:08:56,0.823288374700399,0.953776673829043,1.0019509920146206
2025-03-04,00:08:57,0.9491284979209385,0.9505599845967128,1.0365585497924141
2025-03-04,00:08:58,1.1660936758898197,0.9529977220385356,1.1631404829629177
2025-03-04,00:08:59,1.1860289376463395,1.007106789263925,1.134226306293032
2025-03-04,00:09:00,0.941178107305927,0.8911117265404848,1.0776238670027884
2025-03-04,00:09:01,1.0309512040229558,1.142899396408788,1.1327372163911194
2025-03-04,00:09:02,0.9435159495392595,1.0454843010732031,1.0956861701817724
2025-03-04,00:09:03,0.8704655777404274,1.101829964856985,0.810978493236982
2025-03-04,00:09:04,1.0895457491324458,1.1546577804694362,1.1021297092155062
2025-03-04,00:09:05,0.8563367846315961,1.0370344965654188,0.9824154070966888
2025-03-04,00:09:06,1.1453001375047025,1.007853585266813,0.8807685505868194
2025-03-04,00:09:07,0.9265758142808587,0.9584173037550842,1.0731333460962214
2025-03-04,00:09:08,1.1277489946140828,0.8921067974197154,0.8039287424276605
2025-03-04,00:09:09,1.2076663959904685,1.1199091710269984,0.858951804708403
2025-03-04,00:09:10,1.1537149529484927,0.9740450585665953,0.9131953597695984
2025-03-04,00:09:11,1.0865204400346653,1.0266355311040136,1.1834233035291835
2025-03-04,00:09:12,0.9012641884021624,0.836980093047013,0.9397746636942642
2025-03-04,00:09:13,1.2267656285460808,0.8995297595468079,1.0431655276781655
2025-03-04,00:09:14,1.123160753398369,1.0233244592536856,1.008004907933601
2025-03-04,00:09:15,1.05019367218154,0.8892365667334601,1.182687599028029
2025-03-04,00:09:16,0.9871981659050404,0.8812027226708461,1.0548703359074048
2025-03-04,00:09:17,1.0045014255161722,1.084762793001882,1.0126443514582506
2025-03-04,00:09:18,1.0583993270041392,1.071868855051615,1.1271198959502706
2025-03-04,00:09:19,0.9740095678000409,1.0011829452421142,1.1834962180100368
2025-03-04,00:09:20,1.0566167797221484,0.9259534621868075,0.8898838089243264
2025-03-04,00:09:21,0.8984096269871228,1.110059938998741,0.9348485659824188
2025-03-04,00:09:22,0.9460505673416707,1.155075158486612,1.2809884011437564
2025-03-04,00:09:23,1.174431717857308,0.93879725170618,0.8055004109637776
2025-03-04,00:09:24,1.1337094489660842,1.0050721965561897,0.933033916860358
2025-03-04,00:09:25,0.9469440150843312,0.916131166311315,0.9708285720402076
2025-03-04,00:09:26,1.0768325713895381,0.8300356560302701,0.8571022435299978
2025-03-04,00:09:27,1.119254423819291,0.9924813157376167,0.9728627077418213
2025-03-04,00:09:28,1.207384703303785,0.9175910009289979,1.0395564645919113
